timestamp,accel_x,accel_y,accel_z,ang_vel_x,ang_vel_y,ang_vel_z
4303.029761724,4.408269882202148,-0.009703793562948704,11.079318046569824,-3.1638352083973587e-05,-0.022141242399811745,0.00061179103795439
4303.079761725,4.475905418395996,-0.09194440394639969,10.126967430114746,3.33609277731739e-05,-0.026707280427217484,-0.0026821037754416466
4303.129761726,3.828737735748291,0.05672764778137207,9.760225296020508,-6.667061825282872e-06,-0.0219456534832716,-0.0004220489936415106
4303.179761727,3.778472900390625,0.016742253676056862,9.68325138092041,-2.341865183552727e-06,-0.01817445456981659,-0.0008232361287809908
4303.229761727,3.6158013343811035,0.038853809237480164,9.673824310302734,9.918712021317333e-05,-0.013431834988296032,0.0016266480088233948
4303.279761728,4.321922779083252,0.014766274020075798,9.730314254760742,3.775616278289817e-05,-0.011804119683802128,0.002888309769332409
4303.329761729,4.596811294555664,0.021661395207047462,9.729668617248535,1.4519509932142682e-06,-0.009042554534971714,9.603025682736188e-05
4303.37976173,5.050998687744141,0.0037528786342591047,9.757282257080078,-1.1725314834620804e-06,-0.008152609691023827,0.00034554314333945513
4303.42976173,5.354463577270508,0.016006330028176308,9.759416580200195,6.418449629563838e-07,-0.006536668166518211,0.0011196910636499524
4303.479761731,5.877680778503418,-0.048270098865032196,9.778554916381836,-0.00018364172137808055,-0.006164495833218098,-9.927835344569758e-05
4303.529761732,5.920154094696045,-0.03525089845061302,9.759224891662598,-5.54375619685743e-05,-0.004451379179954529,-0.00030732789309695363
4303.579761733,5.59178352355957,-0.010614652186632156,9.745976448059082,-2.4488463168381713e-06,-0.0027978522703051567,-0.00037047400837764144
4303.629761733,5.34280252456665,-0.005208474583923817,9.75590991973877,1.0033508260676172e-05,-0.0016275218222290277,-0.0003983926144428551
4303.679761734,5.273414611816406,-0.004200289957225323,9.771465301513672,1.3337130440049805e-05,-0.0009249707218259573,-0.0004220584814902395
4303.729761735,5.203755855560303,0.011922851204872131,9.781927108764648,6.4461724832654e-05,-0.0005421721143648028,-8.722958591533825e-05
4303.779761736,5.2040629386901855,0.010077313520014286,9.818921089172363,3.7873192923143506e-05,-0.0004424109647516161,-6.06121966484352e-06
4303.829761736,5.20422887802124,0.0035976250655949116,9.841443061828613,9.91202614386566e-06,4.33345339843072e-05,2.7915499231312424e-05
4303.879761737,1.620246410369873,0.0011624153703451157,9.539161682128906,2.0633215171983466e-06,0.01086928229779005,1.855430696195981e-06
4303.929761738,-0.2638857066631317,-0.0004315690021030605,9.712404251098633,1.1348129191901535e-07,0.0073257749900221825,1.0868463505175896e-05
4303.979761739,0.1826872080564499,0.00020554014190565795,9.856257438659668,-1.3220942491898313e-06,0.007381693460047245,1.254535845873761e-06
4304.029761739,1.741231918334961,0.0003166018286719918,9.935851097106934,-1.8240541521663545e-08,0.0003924229822587222,6.956968263693852e-07
4304.07976174,2.370901584625244,-0.00047739874571561813,9.886141777038574,1.6794519979157485e-06,0.0007203579880297184,-4.17308256146498e-05
4304.129761741,2.0001559257507324,0.0016727063339203596,9.787461280822754,-4.168439318164019e-07,0.002131496090441942,5.392344974097796e-06
4304.179761742,-0.3420489430427551,-0.0011870992602780461,9.719267845153809,-2.309331193828257e-06,0.005634105298668146,-6.385253072949126e-06
4304.229761742,2.609280824661255,0.03374992683529854,10.008204460144043,0.00017357007891405374,-0.013192364946007729,0.0009409586200490594
4304.279761743,12.578997611999512,0.04553189128637314,10.272687911987305,8.807724952930585e-05,-0.018321633338928223,0.001426643691956997
4304.329761744,9.79419231414795,0.026789825409650803,9.630441665649414,3.923476469935849e-05,-0.007721050176769495,0.0016054579755291343
4304.379761744,4.174201965332031,0.014844076707959175,9.436046600341797,-1.9038698155782185e-06,0.00237870286218822,0.0016226109582930803
4304.429761745,3.283228874206543,0.014393477700650692,9.672847747802734,2.1242633010842837e-05,0.00344697292894125,0.001713043195195496
4304.479761746,2.120544195175171,-0.03070097044110298,9.729219436645508,-0.00019718066323548555,0.007692555896937847,0.000564688874874264
4304.529761747,0.44644320011138916,-0.042198050767183304,9.731213569641113,-0.00010165612184209749,0.008735237643122673,2.8636664865189232e-05
4304.579761747,-1.8890680074691772,-0.021126599982380867,9.726268768310547,-3.12680313072633e-05,0.012871118262410164,-0.00021681164798792452
4304.629761748,-2.7144734859466553,-0.01028023287653923,9.814106941223145,-1.7385573300998658e-05,0.009808321483433247,-0.0003547854139469564
4304.679761749,-3.7899153232574463,-0.006907734088599682,9.81339168548584,5.0846210797317326e-08,0.01199779100716114,-0.00041399255860596895
4304.72976175,-3.794253349304199,0.004850916564464569,9.878056526184082,3.683185059344396e-05,0.006153699941933155,-0.00021486695914063603
4304.77976175,-3.9878222942352295,0.00640255119651556,9.851760864257812,1.5493407772737555e-05,0.008155443705618382,-0.00013260480773169547
4304.829761751,-4.551366806030273,0.003587310202419758,9.803638458251953,5.517040335689671e-06,0.012752678245306015,-8.895039354683831e-05
4304.879761752,-10.80848217010498,-0.0007782136090099812,9.541447639465332,-1.3765152289124671e-05,0.015349969267845154,1.7369831766700372e-05
4304.929761753,-10.8854341506958,-0.8561413288116455,9.747306823730469,0.0011845702538266778,0.026880916208028793,-0.05199827998876572
4304.979761753,-24.048927307128906,-0.34593361616134644,9.155597686767578,0.00021415314404293895,0.03523547202348709,-0.03565984219312668
4305.029761754,-26.281530380249023,0.36820733547210693,9.603561401367188,-0.0006785322912037373,0.03406340628862381,-0.022878671064972878
4305.079761755,-15.871827125549316,0.2559533715248108,10.46329116821289,-0.0016610443126410246,-0.008470446802675724,-0.00540625024586916
4305.129761756,2.098900556564331,0.07557091861963272,10.790658950805664,-0.00040525238728150725,-0.025615926831960678,-0.0005784505046904087
4305.179761756,3.0779147148132324,-0.02205759286880493,10.06161880493164,0.00018865018500946462,-0.029021022841334343,0.0006919208681210876
4305.229761757,3.192140579223633,-0.02163955569267273,9.762025833129883,0.00036030495539307594,-0.024660663679242134,-0.00015373769565485418
4305.279761758,3.5811564922332764,0.34203585982322693,9.69096565246582,0.0015094195259734988,-0.02113337814807892,0.00797341950237751
4305.329761759,4.0606842041015625,0.26829713582992554,9.691217422485352,0.0005895823705941439,-0.016962619498372078,0.009810180403292179
4305.379761759,4.92903470993042,0.1295102834701538,9.718637466430664,0.0003125919320154935,-0.014694458805024624,0.010907875373959541
4305.42976176,5.355556964874268,0.10144250094890594,9.7282133102417,0.00016913420404307544,-0.012155655771493912,0.011800122447311878
4305.479761761,5.930939197540283,0.1014186441898346,9.738377571105957,0.0001609195751370862,-0.009881824254989624,0.012624658644199371
4305.529761762,5.705592632293701,-0.11784221231937408,9.716954231262207,-0.0006187385297380388,-0.007071600295603275,0.008498038165271282
4305.579761762,5.3782057762146,-0.07765915244817734,9.724849700927734,-0.00012339555541984737,-0.004835054278373718,0.00800560787320137
4305.629761763,5.319855213165283,0.022292302921414375,9.744244575500488,9.971551480703056e-05,-0.003276473144069314,0.008277328684926033
4305.679761764,5.241122722625732,0.050656307488679886,9.761140823364258,0.00016750658687669784,-0.002245682757347822,0.008673173375427723
4305.729761765,5.192046165466309,0.06192800775170326,9.774369239807129,0.0001825278886826709,-0.0015829983167350292,0.009094164706766605
4305.779761765,5.2332868576049805,-0.19122560322284698,9.872262954711914,-0.0008428014698438346,-0.001285104313865304,0.003105084877461195
4305.829761766,3.761544942855835,-0.16644905507564545,9.63988971710205,-0.0001723559107631445,0.00786663219332695,0.0017250055680051446
4305.879761767,-0.14285121858119965,-0.04683221876621246,9.588394165039062,6.509717786684632e-05,0.007701595313847065,0.0015273457393050194
4305.929761768,-0.26660916209220886,-0.010958273895084858,9.805373191833496,7.759156869724393e-05,0.0085607236251235,0.001328570768237114
4305.979761768,1.3513824939727783,0.0004471875727176666,9.9257230758667,0.00011691510007949546,0.0015644771046936512,0.0013155448250472546
4306.029761769,1.920596718788147,-0.05950535833835602,9.891081809997559,-0.00019723268633242697,0.0016835106071084738,-0.00044961340609006584
4306.07976177,2.8707501888275146,-0.07014814764261246,9.866972923278809,-7.132365135475993e-05,0.0007886891253292561,-0.001135736471042037
4306.129761771,-0.041351620107889175,-0.035382404923439026,9.68574333190918,4.272543083061464e-05,0.005438358522951603,-0.001397341606207192
4306.179761771,0.3170868158340454,-0.0204817745834589,9.825399398803711,2.1323985492927022e-05,0.0006561601185239851,-0.0015921518206596375
4306.229761772,9.945467948913574,-0.021070260554552078,10.360905647277832,3.967608790844679e-06,-0.020343082025647163,-0.0018001693533733487
4306.279761773,13.404898643493652,0.03027934953570366,9.92541217803955,0.00022789232025388628,-0.018527718260884285,-0.0006211535655893385
4306.329761774,9.889593124389648,0.03730577230453491,9.528167724609375,0.00010356144775869325,-0.006599532440304756,-0.00025894740247167647
4306.379761774,4.688848495483398,0.015092038549482822,9.413412094116211,4.061772415298037e-05,0.003742532106116414,-8.029906894080341e-05
4306.429761775,2.2660586833953857,0.005103432107716799,9.616474151611328,1.7267993825953454e-05,0.008702611550688744,-3.410238059586845e-05
4306.479761776,1.9926122426986694,0.0026845205575227737,9.780107498168945,8.11144127510488e-06,0.007201659493148327,-3.6063722745893756e-06
4306.529761777,1.0985159873962402,0.03520701825618744,9.796061515808105,0.00015461600560229272,0.009531962685286999,0.00089448963990435
4306.579761777,-0.38620418310165405,0.04438641294836998,9.774540901184082,9.513528493698686e-05,0.00941008236259222,0.0013868146343156695
4306.629761778,-2.4318435192108154,0.02582676336169243,9.752278327941895,1.4350294804899022e-05,0.01290987804532051,0.0015048383502289653
4306.679761779,-3.2172393798828125,0.018671391531825066,9.823331832885742,2.315107485628687e-05,0.00967692956328392,0.0016543862875550985
4306.72976178,-4.292572975158691,0.013188201934099197,9.816067695617676,-1.7199225112563e-05,0.011734669096767902,0.0015836640959605575
4306.77976178,-4.3869829177856445,0.015443727374076843,9.865966796875,3.118937456747517e-05,0.00627557560801506,0.0017505380092188716
4306.829761781,-4.280257225036621,0.014721985906362534,9.874080657958984,-1.660598354646936e-05,0.007214403711259365,0.0016775039257481694
4306.879761782,-3.812425374984741,0.01396120898425579,9.872089385986328,4.22607445216272e-06,0.0051915692165493965,0.001730309915728867
4306.929761782,-10.579010963439941,0.011773809790611267,9.471549987792969,-1.154243727796711e-05,0.015064369887113571,0.002424699952825904
4306.979761783,-11.425835609436035,-0.8137049078941345,9.755315780639648,0.0011888615554198623,0.021295348182320595,-0.06274796277284622
4307.029761784,-22.116662979125977,-0.7242079377174377,9.213732719421387,0.00033687480026856065,0.033475667238235474,-0.04367198050022125
4307.079761785,-26.19072914123535,0.4232834577560425,9.545465469360352,-0.0007730437209829688,0.033862266689538956,-0.029396066442131996
4307.129761785,-16.95172119140625,0.29777032136917114,10.381723403930664,-0.002087945118546486,-0.005134750157594681,-0.007958482950925827
4307.179761786,-0.4730266332626343,0.09134108573198318,10.699545860290527,-0.000597796868532896,-0.020422281697392464,-0.0019236375810578465
4307.229761787,-0.5768828988075256,-0.0306423120200634,10.001688957214355,0.00018812334747053683,-0.022621581330895424,-0.0006091172690503299
4307.279761788,-1.085969090461731,-0.019997473806142807,9.732681274414062,0.00042425503488630056,-0.018003303557634354,-0.0003140046028420329
4307.329761788,-1.2505536079406738,0.3471642732620239,9.682819366455078,0.0015559438616037369,-0.01470641978085041,0.007846314460039139
4307.379761789,-1.2337255477905273,0.2280885875225067,9.693205833435059,0.00043494036071933806,-0.010848607867956161,0.00864874292165041
4307.42976179,-0.4777117073535919,0.07197067886590958,9.752839088439941,0.00019556940242182463,-0.010412422940135002,0.009061909280717373
4307.479761791,0.5071990489959717,0.0371195450425148,9.785036087036133,-3.0352224712260067e-05,-0.009239677339792252,0.00905108917504549
4307.529761791,1.761952519416809,0.04716433584690094,9.813986778259277,0.00012598602916114032,-0.010152370668947697,0.009731600992381573
4307.579761792,2.686659097671509,0.05367965251207352,9.803199768066406,3.5390006814850494e-05,-0.009213102981448174,0.010129203088581562
4307.629761793,3.6219961643218994,-0.1052519679069519,9.806234359741211,-0.0004070359282195568,-0.00962628610432148,0.006984366104006767
4307.679761794,4.296112060546875,-0.05590430647134781,9.787660598754883,-4.770905070472509e-05,-0.008382773958146572,0.006831147242337465
4307.729761794,4.9598798751831055,0.029249796643853188,9.788480758666992,0.00018314726185053587,-0.008233699016273022,0.00740777375176549
4307.779761795,5.4134907722473145,0.053249575197696686,9.778170585632324,0.00020284498168621212,-0.007226825226098299,0.007979079149663448
4307.829761796,5.946842193603516,0.065372034907341,9.779373168945312,0.00021855879458598793,-0.006346848327666521,0.008567512966692448
4307.879761797,5.739864349365234,-0.15838146209716797,9.748326301574707,-0.0005950494087301195,-0.004448571242392063,0.003955683670938015
4307.929761797,5.451419353485107,-0.11441655457019806,9.74585247039795,-0.00010606374416965991,-0.0028564627282321453,0.003182745072990656
4307.979761798,5.292285919189453,-0.014725718647241592,9.759453773498535,0.00010160946112591773,-0.0017822441877797246,0.003185704816132784
4308.029761799,5.212920188903809,0.014637159183621407,9.773344993591309,0.0001532390306238085,-0.001124579575844109,0.003315733512863517
4308.0797618,5.2133684158325195,0.02155882678925991,9.783272743225098,0.00015323211846407503,-0.0007469394477084279,0.00347277894616127
4308.1297618,5.214033126831055,-0.044830840080976486,9.877312660217285,-0.00013750091602560133,-0.0006265387637540698,0.0018992886180058122
4308.179761801,3.6919872760772705,-0.03688420355319977,9.643743515014648,-8.939990948420018e-06,0.008394106291234493,0.001506267930381
4308.229761802,-0.23252874612808228,-0.008148953318595886,9.594970703125,7.022485806373879e-05,0.008022788912057877,0.001494497642852366
4308.279761803,-0.2363920956850052,0.0013468458782881498,9.810181617736816,4.209457983961329e-05,0.008804917335510254,0.0013845025096088648
4308.329761803,1.2815135717391968,0.007108462043106556,9.928442001342773,7.840821490390226e-05,0.0017070744652301073,0.0014538466930389404
4308.379761804,1.9106088876724243,0.007419702596962452,9.89233112335205,3.4091233828803524e-05,0.0018142058979719877,0.0014025975251570344
4308.429761805,2.8407094478607178,0.008920437656342983,9.868719100952148,5.47044983250089e-05,0.0008358011255040765,0.00148174655623734
4308.479761806,-0.011383870616555214,0.00831913948059082,9.686967849731445,1.0251200365019031e-05,0.00547034852206707,0.0014284654753282666
4308.529761806,0.2870549261569977,0.00972933042794466,9.825967788696289,4.431337583810091e-05,0.0007017296156845987,0.0015023889718577266
4308.579761807,9.855289459228516,0.005545160733163357,10.35390567779541,1.2839444025303237e-05,-0.019543036818504333,0.0014577779220417142
4308.629761808,12.323617935180664,0.007487710099667311,9.874654769897461,3.9116464904509485e-05,-0.015663795173168182,0.0014505399158224463
4308.679761809,6.184996604919434,0.008593449369072914,9.406889915466309,1.1021332284144592e-05,6.6927052102983e-05,0.0014243405312299728
4308.729761809,3.254147529602051,0.009124605916440487,9.563925743103027,3.1667223083786666e-05,0.003560801036655903,0.0014623384922742844
4308.77976181,1.8813458681106567,-0.03153088688850403,9.690650939941406,-0.00017700767784845084,0.008603781461715698,0.00034476330620236695
4308.829761811,0.16687919199466705,-0.042122405022382736,9.724257469177246,-9.074909030459821e-05,0.009537729434669018,-0.00018412918143440038
4308.879761812,-2.048928737640381,-0.02226528897881508,9.734678268432617,-2.153420791728422e-05,0.01341676153242588,-0.0004143390688113868
4308.929761812,-2.8145134449005127,-0.01138339564204216,9.822744369506836,-1.2275763765501324e-05,0.010039864107966423,-0.0005543816951103508
4308.979761813,-3.8700478076934814,-0.007720521185547113,9.818807601928711,8.387494744965807e-06,0.01212767418473959,-0.000596888130530715
4309.029761814,-3.9745702743530273,0.007697109133005142,9.87191390991211,5.797528137918562e-05,0.006256952881813049,-0.0003024259058292955
4309.079761815,-4.068167209625244,0.010184608399868011,9.861795425415039,2.6150737539865077e-05,0.008146382868289948,-0.00017862842651084065
4309.129761815,-5.132198333740234,0.004643523134291172,9.770246505737305,1.2084910849807784e-05,0.013182076625525951,-0.00011652726243482903
4309.179761816,-9.978569030761719,0.0007959678769111633,9.635732650756836,1.8982755136676133e-06,0.012625760398805141,-9.315121860709041e-05
4309.229761817,-18.710920333862305,0.0014054812490940094,9.24290943145752,-2.6966154109686613e-07,0.033641066402196884,-8.548201731173322e-05
4309.279761818,-26.07901954650879,0.011502161622047424,9.435845375061035,3.6597739381249994e-05,0.03670953959226608,0.00017786397074814886
4309.329761818,-26.317476272583008,0.006964381784200668,9.732834815979004,-1.3734153981204145e-05,0.031997986137866974,0.00017679110169410706
4309.379761819,-26.09184455871582,-0.005015496164560318,9.804119110107422,-5.667755249305628e-05,0.0245840921998024,1.0435357580718119e-05
4309.42976182,-15.628110885620117,-0.006303056143224239,10.455254554748535,-1.7323116480838507e-05,-0.01260780543088913,4.845402600039961e-06
4309.47976182,-1.686173915863037,-0.002987191081047058,10.59268569946289,3.293276677140966e-06,-0.02822844684123993,8.765219718043227e-06
4309.529761821,1.9643383026123047,-0.002370055764913559,10.120182991027832,8.905466529540718e-06,-0.03673599660396576,-0.00011571081995498389
4309.579761822,3.3818447589874268,-0.08399277925491333,9.759270668029785,4.860236731474288e-05,-0.026533247902989388,-0.0004496091860346496
4309.629761823,2.2647347450256348,-0.03812301903963089,9.637545585632324,0.0003594148438423872,-0.02545713447034359,-0.01061857771128416
4309.679761823,2.8041484355926514,0.225153848528862,9.638386726379395,-0.00010246082092635334,-0.018887285143136978,0.005844693165272474
4309.729761824,2.0116348266601562,-0.2832203805446625,9.634642601013184,-1.6710993804736063e-05,-0.012701860629022121,0.009862013161182404
4309.779761825,3.496988534927368,0.16943581402301788,9.753267288208008,-0.0001676377432886511,-0.010125022381544113,-0.011259602382779121
4309.829761826,3.461808204650879,0.22306585311889648,9.731780052185059,0.00017636248958297074,-0.00799144059419632,0.0016771139344200492
4309.879761826,3.065612316131592,-0.17012569308280945,9.722737312316895,-0.00012339313980191946,-0.006403307896107435,0.008181245066225529
4309.929761827,3.7384231090545654,-0.05882622301578522,9.771726608276367,2.6406058168504387e-05,-0.005059868097305298,0.0013085954124107957
4309.979761828,3.110121250152588,0.04633573070168495,9.741838455200195,7.481686043320224e-05,-0.0036044069565832615,0.004640575032681227
4310.029761829,2.54083251953125,0.026097146794199944,9.737407684326172,-8.11007630545646e-05,-0.0005053632776252925,0.0005162646993994713
4310.079761829,2.781575918197632,-0.04740068316459656,9.800874710083008,-1.7208409190061502e-05,-0.0018324896227568388,0.00045831137686036527
4310.12976183,3.3424458503723145,-0.012581344693899155,9.82187271118164,-6.954605396458646e-06,-0.0018516776617616415,-0.003134987084195018
4310.179761831,4.354128360748291,-0.0816173255443573,9.846536636352539,-7.982545503182337e-05,-0.0036206156946718693,-0.008338740095496178
4310.229761832,4.335336685180664,0.08452358096837997,9.795923233032227,-1.2591082850121893e-05,-0.00241628079675138,-0.0013099504867568612
4310.279761832,4.626934051513672,-0.017081312835216522,9.803520202636719,-1.2999145837966353e-05,-0.003322056494653225,-0.003310713218525052
4310.329761833,4.93831205368042,0.027548659592866898,9.79804515838623,1.689725468168035e-05,-0.0026917816139757633,0.0004039649502374232
4310.379761834,5.309851169586182,-0.006849981844425201,9.802794456481934,9.06968125491403e-06,-0.0032559034880250692,5.2587914979085326e-05
4310.429761835,5.69143009185791,-0.0022357311099767685,9.803061485290527,4.4924590838490985e-06,-0.003297874704003334,1.7584005036042072e-05
4310.479761835,5.962861061096191,0.046641454100608826,9.791400909423828,0.00016042296192608774,-0.0027045307215303183,0.0010927369585260749
4310.529761836,5.6337785720825195,0.03685910627245903,9.763876914978027,5.725479422835633e-05,-0.0015349069144576788,0.0013479057233780622
4310.579761837,5.354289531707764,0.017170200124382973,9.766873359680176,1.553727634018287e-05,-0.0006853716331534088,0.0014603162417188287
4310.629761838,5.234507083892822,0.013157935813069344,9.778556823730469,3.330950676172506e-06,-0.00021645113884005696,0.001548030530102551
4310.679761838,5.214570999145508,0.012490599416196346,9.787882804870605,3.839536930172471e-06,-9.871708243736066e-06,0.001629941980354488
4310.729761839,5.204590320587158,-0.018887899816036224,9.793853759765625,-0.0001068511774064973,4.1290004446636885e-05,0.0009712878963910043
4310.77976184,5.20480489730835,-0.015475938096642494,9.893950462341309,-3.486841160338372e-05,0.000284184847259894,0.0008424876141361892
4310.829761841,2.9016902446746826,-0.0026997271925210953,9.590730667114258,2.380341356911231e-06,0.007300044875591993,0.0008031384204514325
4310.879761841,-0.7431211471557617,0.00072913384065032,9.625068664550781,-8.805263860267587e-06,0.011271750554442406,0.0007354303379543126
4310.929761842,0.453598290681839,0.003461104817688465,9.877120018005371,1.8107737560058013e-05,0.004790227860212326,0.000771244172938168
4310.979761843,1.061342716217041,0.003099291119724512,9.894571304321289,-1.4111519703874364e-06,0.004495860077440739,0.0007397870649583638
4311.029761844,2.6211254596710205,-0.021522775292396545,9.929884910583496,-0.00010981986270053312,-0.0019273675279691815,0.00013313845556695014
4311.079761844,2.0904572010040283,-0.025681832805275917,9.794339179992676,-3.517973891575821e-05,0.004208406433463097,-0.00017455250781495124
4311.129761845,0.1585679054260254,-0.011624040082097054,9.731505393981934,-1.1775310667871963e-05,0.002842859597876668,-0.0002957464021164924
4311.179761846,0.8379232287406921,-0.0064573632553219795,9.875972747802734,-3.815316631516907e-06,-0.006905757822096348,-0.00035016037872992456
4311.229761847,12.15786361694336,-0.005193840712308884,10.387022972106934,-1.2547570804599673e-07,-0.0218361746519804,-0.0003677751519717276
4311.279761847,12.996588706970215,0.007930390536785126,9.817160606384277,5.5218173656612635e-05,-0.017369145527482033,-8.009030716493726e-05
4311.329761848,10.932357788085938,0.008417148143053055,9.582186698913574,2.7498101189848967e-05,-0.010687624104321003,-3.2049349101725966e-05
4311.379761849,8.745064735412598,0.004341969732195139,9.554271697998047,1.3150249287718907e-05,-0.00249097659252584,9.055018745129928e-05
4311.42976185,6.154353618621826,0.0003176066093146801,9.56689453125,3.7520835576287936e-06,0.0032665038015693426,2.3806802346371114e-05
4311.47976185,4.702472686767578,0.0006864024326205254,9.697054862976074,7.880953489802778e-08,0.005433747079223394,2.5163477403111756e-05
4311.529761851,5.250931739807129,0.0012627160176634789,9.819146156311035,9.999334906751756e-07,0.0029179563280194998,3.800735794357024e-05
4311.579761852,5.289461612701416,0.00025701289996504784,9.822708129882812,1.1548067959665786e-06,0.0030663369689136744,3.494120028335601e-05
4311.629761853,5.638683795928955,0.00010638870298862457,9.834468841552734,1.4624597497459035e-06,0.0007974121836014092,4.3300966353854164e-05
4311.679761853,5.618067264556885,0.0007098126225173473,9.810463905334473,3.006948645634111e-07,0.0013020610203966498,3.92359979741741e-05
4311.729761854,3.224839687347412,0.0003935880959033966,9.661744117736816,4.610874384525232e-07,0.006212420761585236,8.862820686772466e-05
4311.779761855,-0.4106082320213318,-0.0012174545554444194,9.648344993591309,-1.1963020369876176e-06,0.015014068223536015,1.2025018804706633e-05
4311.829761856,2.5481619834899902,0.0007679879199713469,10.022509574890137,-1.225603227794636e-06,-0.003921606577932835,3.361464769113809e-05
4311.879761856,8.872237205505371,0.0009308634325861931,10.137063980102539,5.702381713490468e-07,-0.008358153514564037,5.399894143920392e-05
4311.929761857,7.8048882484436035,0.0010153064504265785,9.773301124572754,2.0389109067764366e-06,-0.005812990944832563,5.513363430509344e-05
4311.979761858,6.6064982414245605,3.0263327062129974e-05,9.693009376525879,9.825183724387898e-07,-0.0024239858612418175,5.332750515663065e-05
4312.029761858,5.6969404220581055,0.0007520436774939299,9.707130432128906,6.437120987357048e-07,6.824628508184105e-05,4.7332669055322185e-05
4312.079761859,5.066529273986816,0.0002074195072054863,9.740543365478516,-2.3387883629766293e-08,0.0015348121523857117,4.555918349069543e-05
4312.12976186,4.635636806488037,-8.135568350553513e-05,9.769282341003418,8.180545592040289e-07,0.0022020796313881874,3.97003059333656e-05
4312.179761861,4.354542255401611,0.0010272432118654251,9.788416862487793,-8.9600268893264e-07,0.0023697989527136087,4.0807306504575536e-05
4312.229761861,4.053281307220459,0.0005653013940900564,9.792974472045898,-1.2755880334225367e-06,0.0029787144158035517,3.3567532227607444e-05
4312.279761862,2.851008653640747,-0.00015592016279697418,9.748333930969238,-2.4053299512161175e-06,0.005643940530717373,3.166224269079976e-05
4312.329761863,0.897368848323822,-0.0002060693223029375,9.720991134643555,-1.0813860171765555e-06,0.008311797864735126,-1.0701958672143519e-05
4312.379761864,-0.5370007753372192,0.0014719720929861069,9.758770942687988,-1.6440799299743958e-06,0.009409389458596706,0.00011126414028694853
4312.429761864,-1.4415054321289062,-0.003406033618375659,9.804221153259277,-6.666283297818154e-06,0.009066633880138397,-0.00046492801629938185
4312.479761865,-2.2459840774536133,0.008192027918994427,9.81607723236084,-2.275526867379085e-06,0.009545947425067425,0.0013713693479076028
4312.529761866,-3.5607340335845947,-0.015436082147061825,9.792699813842773,-1.0800122254295275e-05,0.009553211741149426,-0.0015254513127729297
4312.579761867,-4.995860576629639,0.015034070238471031,9.784278869628906,-5.640614290314261e-06,0.010963392443954945,0.0006709755398333073
4312.629761867,-5.420429229736328,-0.008838161826133728,9.840588569641113,4.256326064933091e-06,0.00789202842861414,-0.00015725725097581744
4312.679761868,-4.503296375274658,0.0029986784793436527,9.912878036499023,5.29071348864818e-06,0.005111759062856436,5.845613941346528e-06
4312.729761869,-3.144035577774048,-0.000356210395693779,9.930724143981934,2.5160804852930596e-06,-0.0012092835968360305,-7.71632585383486e-06
4312.77976187,-5.546489238739014,0.0003219703212380409,9.668920516967773,-9.765840331965592e-07,0.010183305479586124,-3.708690928760916e-05
4312.82976187,-9.521528244018555,-0.0012410241179168224,9.648175239562988,-2.2502304091176484e-06,0.009671980515122414,-9.253462485503405e-05
4312.879761871,-7.605391979217529,0.0015278561040759087,9.906810760498047,-8.74146462592762e-06,0.003995942417532206,0.00023785459052305669
4312.929761872,-5.916435241699219,-0.0035757767036557198,9.934144973754883,-3.768389262859273e-07,0.00127932068426162,-0.00018695578910410404
4312.979761873,-4.605546474456787,0.002343148924410343,9.907696723937988,-2.9153329705877695e-06,-0.003500155871734023,-3.8093927287263796e-05
4313.029761873,-3.7136425971984863,-0.001225823536515236,9.859955787658691,-1.8669379642233253e-06,-0.0036980081349611282,-4.124383121961728e-05
4313.079761874,-2.020552396774292,0.0005194724071770906,9.88965129852295,-1.205215994559694e-06,-0.008108753710985184,-2.296964157721959e-05
4313.129761875,-0.6165205836296082,-0.0009970534592866898,9.858902931213379,-6.225382094271481e-07,-0.007931698113679886,-1.7174948879983276e-05
4313.179761876,1.0082807540893555,1.7356418538838625e-05,9.862378120422363,2.6306515792384744e-06,-0.010811100713908672,2.026333049798268e-06
4313.229761876,1.993233561515808,0.0008007779251784086,9.818329811096191,2.6779187010106398e-06,-0.009401977062225342,6.587606549146585e-06
4313.279761877,3.208306312561035,-0.0004932056181132793,9.820789337158203,3.2176858439925127e-06,-0.010847046039998531,2.2349659047904424e-05
4313.329761878,3.853008508682251,0.0002838789951056242,9.786551475524902,2.5021342935360735e-06,-0.008769730105996132,2.375485564698465e-05
4313.379761879,4.657462120056152,0.0008930482435971498,9.791064262390137,2.934930535047897e-06,-0.009224929846823215,3.5244014725321904e-05
4313.429761879,3.419485092163086,-0.000405158381909132,9.665322303771973,3.1344889066531323e-06,0.0008778321207500994,6.442573521781014e-06
4313.47976188,0.2885321378707886,0.00021309191652107984,9.62131118774414,1.0334993021388073e-06,0.002378104953095317,1.2955064448760822e-05
4313.529761881,1.0884383916854858,-0.00018762529361993074,9.847821235656738,4.899534360447433e-07,-0.006038856226950884,2.3607004550285637e-05
4313.579761882,8.324305534362793,0.001510213129222393,10.147732734680176,2.409851731499657e-06,-0.012051809579133987,4.744369289255701e-05
4313.629761882,7.788952350616455,-0.00032214168459177017,9.779703140258789,3.1129197850532364e-06,-0.009131169877946377,5.446372233564034e-05
4313.679761883,6.612015247344971,0.0009036576375365257,9.6802339553833,2.373310508119175e-06,-0.00516880489885807,5.148044874658808e-05
4313.729761884,5.7535929679870605,0.00040989089757204056,9.690485000610352,2.850392775144428e-06,-0.002052066382020712,4.9228423449676484e-05
4313.779761885,5.104058265686035,0.0007204583380371332,9.724989891052246,6.336940714390948e-07,-8.020985114853829e-05,4.419722608872689e-05
4313.829761885,4.663825511932373,0.00011801999062299728,9.756302833557129,2.7345640774001367e-06,0.001003169920295477,4.275339233572595e-05
4313.879761886,4.39323091506958,0.000765601871535182,9.77873706817627,1.2810937732865568e-06,0.0014786373358219862,3.911953172064386e-05
4313.929761887,4.1724958419799805,0.0004215461667627096,9.793103218078613,1.2022032933600713e-06,0.0015922217862680554,3.8953021430643275e-05
4313.979761888,3.7613091468811035,0.0685930997133255,9.77994441986084,0.0003406638279557228,0.0033074826933443546,0.0018640956841409206
4314.029761888,1.5782188177108765,0.09344302117824554,9.696420669555664,0.00021411992202047259,0.00785713642835617,0.0028158449567854404
4314.079761889,-0.9665709137916565,0.0667319968342781,9.69408130645752,0.000130937754875049,0.010956701822578907,0.003311359556391835
4314.12976189,-2.58217191696167,0.05400163307785988,9.758478164672852,8.972969226306304e-05,0.011930502019822598,0.0035149704199284315
4314.179761891,-3.5477802753448486,0.047240499407052994,9.814937591552734,7.390687824226916e-05,0.011064726859331131,0.003696318482980132
4314.229761891,-4.333154201507568,-0.039986830204725266,9.827679634094238,-0.00035089891753159463,0.011101383715867996,0.0013620940735563636
4314.279761892,-5.328212261199951,-0.06833001226186752,9.824238777160645,-0.00020277731528040022,0.009283770807087421,0.00041784296627156436
4314.329761893,-5.712606430053711,-0.03766864538192749,9.843093872070312,-0.00010094366734847426,0.008854400366544724,-0.0004437961906660348
4314.379761894,-5.01538610458374,-0.018737275153398514,9.905900001525879,-7.651337364222854e-05,0.0022750443313270807,-0.0006444884347729385
4314.429761894,-3.996553897857666,-0.01216925960034132,9.895832061767578,-5.800298458780162e-05,0.00264145340770483,-0.0008170148357748985
4314.479761895,-4.52776575088501,-0.05209086090326309,9.788837432861328,-0.0002446674043312669,0.007582587655633688,-0.002008699346333742
4314.529761896,-9.612152099609375,-0.06505785882472992,9.573127746582031,-0.00016210827743634582,0.009720669128000736,-0.0026223347522318363
4314.579761896,-7.355732440948486,-0.05042111128568649,9.921518325805664,-0.00010464841761859134,0.0024209560360759497,-0.0029875312466174364
4314.629761897,-5.316116809844971,-0.03579334914684296,9.944829940795898,-4.31353400927037e-05,-0.0002082254650304094,-0.003009998006746173
4314.679761898,-3.8344886302948,-0.03214935213327408,9.914464950561523,-4.788389560417272e-05,-0.00477034505456686,-0.003096716944128275
4314.729761899,-3.182176113128662,0.0398700051009655,9.841222763061523,0.0003060390008613467,-0.004106856882572174,-0.0012309622252359986
4314.779761899,-1.8791784048080444,0.06579241901636124,9.860980033874512,0.0001677304826444015,-0.007615113165229559,-0.00022381183225661516
4314.8297619,-0.6554432511329651,0.033751219511032104,9.848361015319824,7.295774412341416e-05,-0.007394637446850538,0.0002754876622930169
4314.879761901,0.979076623916626,0.019416093826293945,9.862106323242188,4.549696313915774e-05,-0.010269994847476482,0.0005814989563077688
4314.929761902,2.0038270950317383,0.012303243391215801,9.822509765625,2.914560172939673e-05,-0.009067685343325138,0.0007251964998431504
4314.979761902,3.2087528705596924,-0.0072448160499334335,9.823221206665039,-4.747474304167554e-05,-0.010540688410401344,0.0003846241452265531
4315.029761903,3.85335373878479,-0.01285322941839695,9.789776802062988,-1.633386818866711e-05,-0.008618220686912537,0.00020716933067888021
4315.079761904,4.687727928161621,-0.005331892520189285,9.792633056640625,3.5239895623817574e-06,-0.009078342467546463,0.00012582783529069275
4315.129761905,1.4581040143966675,-0.0028684709686785936,9.574786186218262,7.829746209608857e-06,0.0020034846384078264,5.233271076576784e-05
4315.179761905,0.17705804109573364,-0.0010405738139525056,9.703936576843262,6.281085006776266e-06,0.002278285101056099,3.4468743251636624e-05
4315.229761906,3.8898632526397705,-8.458830416202545e-05,10.031414985656738,6.209773346199654e-06,-0.010748240165412426,5.038061863160692e-05
4315.279761907,8.735809326171875,0.0012355237267911434,10.000584602355957,7.830842150724493e-06,-0.011496897786855698,5.770787538494915e-05
4315.329761908,7.239861011505127,0.08131574839353561,9.7157621383667,0.00040273350896313787,-0.00768051715567708,0.0022229375317692757
4315.379761908,6.212394714355469,0.10832110792398453,9.677992820739746,0.0002477405359968543,-0.00395233416929841,0.003346602199599147
4315.429761909,5.423566818237305,0.07745974510908127,9.703505516052246,0.00016155307821463794,-0.0012865797616541386,0.003960280679166317
4315.47976191,4.923788070678711,0.06239302456378937,9.737937927246094,0.00012734433403238654,0.00031127090915106237,0.004305260255932808
4315.529761911,4.523446559906006,0.058196935802698135,9.765981674194336,0.00011302256461931393,0.0011392264859750867,0.004522014409303665
4315.579761911,4.302833080291748,0.05674423277378082,9.784693717956543,0.00010598250810289755,0.0014660042943432927,0.004662476014345884
4315.629761912,3.8015828132629395,-0.09794174879789352,9.774887084960938,-0.0006744386628270149,0.0033036316744983196,0.0005717427120544016
4315.679761913,1.6584910154342651,-0.15360505878925323,9.697070121765137,-0.00040157584589906037,0.007699611596763134,-0.0016343784518539906
4315.729761914,-0.7661750912666321,-0.0942743644118309,9.696731567382812,-0.0002385104598943144,0.01078693475574255,-0.0028248606249690056
4315.779761914,-2.4216699600219727,-0.06240035593509674,9.758718490600586,-0.00017188754281960428,0.01175004243850708,-0.0033092692028731108
4315.829761915,-3.3572161197662354,-0.05245117098093033,9.813223838806152,-0.00014595103857573122,0.011015666648745537,-0.0038954471237957478
4315.879761916,-4.1825032234191895,-0.07531256228685379,9.827841758728027,-0.00026687150239013135,0.010928942821919918,-0.004165120422840118
4315.929761917,-5.2876152992248535,-0.09573227167129517,9.81534194946289,-0.00019072847499046475,0.009733552113175392,-0.0065080043859779835
4315.979761917,-5.7221503257751465,-0.05753384903073311,9.841368675231934,-0.00014478529919870198,0.009000017307698727,-0.002983866725116968
4316.029761918,-5.045015811920166,-0.0774376168847084,9.907806396484375,-9.466808114666492e-05,0.0023937849327921867,-0.005661530885845423
4316.079761919,-4.0162835121154785,-0.0502343513071537,9.896120071411133,-2.19924513658043e-05,0.002823168644681573,-0.005069428589195013
4316.12976192,-4.8178486824035645,-0.05855347961187363,9.768917083740234,7.243745130836032e-06,0.009203033521771431,-0.00521490816026926
4316.17976192,-11.083609580993652,0.10765421390533447,9.513679504394531,0.000763273099437356,0.012541985139250755,-0.0009526396170258522
4316.229761921,-8.798595428466797,0.1648445427417755,9.927105903625488,0.0004198651295155287,0.0037052039988338947,0.0014550968771800399
4316.279761922,-5.47892427444458,0.0878991112112999,10.020468711853027,0.00017139283590950072,-0.0012564618373289704,0.00243744277395308
4316.329761923,-3.33624267578125,0.05227472633123398,9.960094451904297,0.0001356452121399343,-0.006961875595152378,0.003049458609893918
4316.379761923,-2.3526365756988525,0.03737610578536987,9.859477043151855,7.464258669642732e-05,-0.006357964128255844,0.0032638399861752987
4316.429761924,-1.2787564992904663,0.08796083182096481,9.84110164642334,0.0003555169969331473,-0.008816462941467762,0.004891815595328808
4316.479761925,-0.3546731770038605,0.09916896373033524,9.8199462890625,0.00018182126223109663,-0.00783785991370678,0.005590036977082491
4316.529761926,1.1899539232254028,0.08137266337871552,9.847932815551758,0.00017698634474072605,-0.010383850894868374,0.006113880313932896
4316.579761926,2.1447083950042725,0.07053409516811371,9.815766334533691,9.599087206879631e-05,-0.009019351564347744,0.00632485980167985
4316.629761927,3.3396029472351074,0.06870197504758835,9.820533752441406,0.00013825228961650282,-0.010414615273475647,0.00655285082757473
4316.679761928,3.96401309967041,-0.09667977690696716,9.787178993225098,-0.0007067223195917904,-0.008446354418992996,0.0022685201838612556
4316.729761929,4.748259544372559,-0.15011483430862427,9.791727066040039,-0.00037525343941524625,-0.008890767581760883,4.377135701361112e-05
4316.779761929,1.4985527992248535,-0.07883156090974808,9.572093963623047,-0.0001653898652875796,0.002278112806379795,-0.0010117453057318926
4316.82976193,0.16742485761642456,-0.04265967011451721,9.704327583312988,-0.00011240599997108802,0.002511592349037528,-0.001560528064146638
4316.879761931,3.8801674842834473,-0.03065534681081772,10.033254623413086,-9.712874452816322e-05,-0.010605969466269016,-0.0018762999679893255
4316.929761931,8.766029357910156,-0.09792951494455338,10.002418518066406,-0.00042271625716239214,-0.011394687928259373,-0.003949805162847042
4316.979761932,7.270068645477295,-0.11732256412506104,9.7162446975708,-0.00028306100284680724,-0.007593700196594,-0.0050434451550245285
4317.029761933,6.212580680847168,-0.09233160316944122,9.678275108337402,-0.0002033574419328943,-0.00387638621032238,-0.005657710134983063
4317.079761934,5.443730354309082,-0.07939399778842926,9.703691482543945,-0.0001727266062516719,-0.0012208056868985295,-0.006023913621902466
4317.129761934,4.903927326202393,-0.07582338899374008,9.738008499145508,-0.0001538484066259116,0.0003668341669254005,-0.00626420509070158
4317.179761935,4.413279056549072,0.07259044796228409,9.758308410644531,0.0006014071404933929,0.0019191853934898973,-0.0023849178105592728
4317.229761936,3.1213440895080566,0.12668922543525696,9.72767448425293,0.00033586594508960843,0.00502537889406085,-0.0003438224666751921
4317.279761937,1.2881278991699219,0.06782491505146027,9.718466758728027,0.00018487454508431256,0.007581982761621475,0.0007769936346448958
4317.329761937,-0.0058110617101192474,0.03517056629061699,9.761582374572754,0.00012715013872366399,0.008566699922084808,0.0011239299783483148
4317.379761938,-1.1303175687789917,0.10412716865539551,9.784177780151367,0.00046733292401768267,0.009856515564024448,0.00417854031547904
4317.429761939,-2.9756438732147217,0.10671614855527878,9.759780883789062,0.0002966743486467749,0.011499462649226189,0.0026691968087106943
4317.47976194,-4.601452827453613,0.11723930388689041,9.77737045288086,0.0001869501284090802,0.011956272646784782,0.010456706397235394
4317.52976194,-5.19680118560791,-0.009977542795240879,9.837660789489746,0.00018516015552449971,0.010150222107768059,-0.007164007984101772
4317.579761941,-5.411189079284668,0.23229531943798065,9.859505653381348,-4.059768980368972e-05,0.008219924755394459,0.0236241165548563
4317.629761942,-3.663285732269287,-0.24408859014511108,9.969864845275879,5.371640872908756e-05,0.0004925034008920193,-0.020147575065493584
4317.679761943,-1.1518797874450684,0.27123385667800903,9.982505798339844,-0.00033333650208078325,-0.003486026544123888,0.030023634433746338
4317.729761943,-4.84417200088501,-0.2316952496767044,9.589289665222168,-8.855164924170822e-05,0.01057475432753563,-0.0009225169196724892
4317.779761944,-9.989287376403809,0.31403884291648865,9.577778816223145,-0.0001348113000858575,0.011478789150714874,0.02117561176419258
4317.829761945,-8.445033073425293,-0.1586291790008545,9.873383522033691,0.00042117011616937816,0.007416246458888054,-0.012895163148641586
4317.879761946,-7.167123794555664,0.0852588564157486,9.922236442565918,-0.001049279933795333,0.002905478235334158,0.023479925468564034
4317.929761946,-5.558038711547852,-0.5099858045578003,9.933652877807617,0.00029835180612280965,-0.0018050519283860922,-0.03964540734887123
4317.979761947,-3.514767646789551,0.3033283054828644,9.933228492736816,-0.0008325050584971905,-0.0057618157006800175,0.03450407087802887
4318.029761948,-1.6818604469299316,-0.5527850985527039,9.905515670776367,0.00037296980735845864,-0.008572099730372429,-0.0458509661257267
4318.079761949,-0.046208132058382034,0.417304664850235,9.871593475341797,-0.0005905862781219184,-0.010128946974873543,0.032310016453266144
4318.129761949,1.2885674238204956,-0.5695928931236267,9.8407564163208,-8.42394947540015e-05,-0.010780899785459042,-0.0440686009824276
4318.17976195,2.464053153991699,0.3135356307029724,9.819260597229004,-0.0004646696615964174,-0.010816212743520737,0.025037651881575584
4318.229761951,3.4495503902435303,-0.5058785080909729,9.802886009216309,-0.00015032582450658083,-0.010422440245747566,-0.03910234570503235
4318.279761952,4.273931503295898,0.25468361377716064,9.790639877319336,-0.000202002382138744,-0.009766717441380024,0.016481610015034676
4318.329761952,4.899266242980957,-0.4005659520626068,9.781643867492676,-0.00023755042639095336,-0.008789682760834694,-0.030674409121274948
4318.379761953,3.669990301132202,0.39907702803611755,9.657400131225586,0.0011716085718944669,0.0013869452523067594,0.01721269078552723
4318.429761954,0.30961623787879944,-0.05594387277960777,9.614776611328125,0.00041999213863164186,0.0019509631674736738,-0.021695906296372414
4318.479761955,0.8483637571334839,0.32668742537498474,9.82728099822998,0.0003161471395287663,-0.005257193464785814,0.009578202851116657
4318.529761955,8.12468433380127,-0.059656232595443726,10.160792350769043,0.00013090709398966283,-0.011686383746564388,-0.001187923364341259
4318.579761956,7.878966808319092,0.1083657518029213,9.791823387145996,0.00012755383795592934,-0.00906125083565712,0.004322744905948639
4318.629761957,6.631869792938232,0.22656089067459106,9.68359661102295,0.0010777279967442155,-0.005144096445292234,0.007193642668426037
4318.679761958,5.783479690551758,0.324755996465683,9.691313743591309,0.0007526706904172897,-0.002043586689978838,0.013047464191913605
4318.729761958,5.114150047302246,0.21709631383419037,9.724480628967285,0.0005070279585197568,-6.103330088080838e-05,0.012129416689276695
4318.779761959,4.684064865112305,0.2135964035987854,9.756319999694824,0.00046085953363217413,0.001027111429721117,0.015722624957561493
4318.82976196,4.403561592102051,0.17356052994728088,9.778010368347168,0.00038730158121325076,0.0015058508142828941,0.0139464708045125
4318.879761961,3.852046489715576,-0.06799153983592987,9.771768569946289,-0.0009568564128130674,0.003426159732043743,0.009634766727685928
4318.929761961,1.9788812398910522,-0.2054612636566162,9.709151268005371,-0.0005580154829658568,0.007095040287822485,0.00029664509929716587
4318.979761962,-0.2950994372367859,-0.01100481953471899,9.707497596740723,-0.00018655200256034732,0.010046226903796196,0.012227114289999008
4319.029761963,-1.8405853509902954,-0.14172491431236267,9.75888442993164,-0.0002636863209772855,0.011023973114788532,-0.013429511338472366
4319.079761964,-2.7750630378723145,0.17656759917736053,9.810249328613281,-0.00013067552936263382,0.010485420934855938,0.01882743276655674
4319.129761964,-3.350769519805908,-0.20854254066944122,9.842264175415039,-0.0001430137490388006,0.009164559654891491,-0.019484268501400948
4319.179761965,-3.8348565101623535,-0.1347362995147705,9.83892822265625,-0.0020661966409534216,0.008645337074995041,0.010993272997438908
4319.229761966,-5.019921779632568,-0.7530825138092041,9.800138473510742,-0.0010995548218488693,0.008893031626939774,-0.03509455919265747
4319.279761967,-5.582869529724121,-0.09433494508266449,9.830697059631348,-0.0009870757348835468,0.0058724964037537575,0.005644472315907478
4319.329761967,-4.234710216522217,-0.5526831746101379,9.920099258422852,-0.00019949799752794206,0.003054242115467787,-0.0462157167494297
4319.379761968,-3.7558329105377197,0.08201716095209122,9.871542930603027,-0.0006523606134578586,0.0013297359691932797,0.010915054008364677
4319.429761969,-8.849246978759766,-0.42346158623695374,9.533197402954102,0.0008613811805844307,0.01245258841663599,-0.03182831406593323
4319.479761969,-9.436062812805176,0.1705816686153412,9.806103706359863,-0.0001567055587656796,0.0071184756234288216,0.0013792989775538445
4319.52976197,-6.41668701171875,-0.235502690076828,9.987381935119629,0.0004015632439404726,0.0007661697454750538,-0.03828158229589462
4319.579761971,-4.367611885070801,0.27416759729385376,9.960545539855957,-0.0005903883138671517,-0.0038095861673355103,0.024969788268208504
4319.629761972,-2.9710869789123535,-0.5070289373397827,9.894562721252441,0.0006646912661381066,-0.005871798377484083,-0.04804324358701706
4319.679761972,-2.095078706741333,0.9938278198242188,9.841498374938965,0.00260542263276875,-0.006702698301523924,0.045650631189346313
4319.729761973,-1.087929368019104,0.2643725872039795,9.836655616760254,0.002208640333265066,-0.007863696664571762,-0.022881288081407547
4319.779761974,0.3745161294937134,0.9405190944671631,9.847687721252441,0.0006835408275946975,-0.00901245977729559,0.05759086459875107
4319.829761975,1.6223894357681274,-0.10037451982498169,9.837725639343262,0.0009023832390084863,-0.009692398831248283,-0.011312614195048809
4319.879761975,2.766385793685913,0.697694718837738,9.821320533752441,0.00046733004273846745,-0.009855253621935844,0.056027404963970184
4319.929761976,3.7217657566070557,-0.2433328479528427,9.806572914123535,-0.000119305397674907,-0.009610271081328392,-0.005950276739895344
4319.979761977,4.466835021972656,0.40415725111961365,9.79398250579834,0.00013682665303349495,-0.009049146436154842,0.04288679361343384
4320.029761978,4.269207000732422,-0.1304093599319458,9.723065376281738,5.79611150897108e-05,-0.003811955451965332,-0.002856892766430974
4320.079761978,0.32985299825668335,0.4019872844219208,9.566020965576172,0.00022914272267371416,0.004376289434731007,0.039522070437669754
4320.129761979,0.4073934853076935,-0.03349204733967781,9.780713081359863,-3.2753141567809507e-06,-0.0009333690977655351,0.0029710771050304174
4320.17976198,7.000734806060791,-0.46387267112731934,10.162955284118652,-0.0035022366791963577,-0.011835013516247272,0.001332700252532959
4320.229761981,8.074535369873047,-0.8506632447242737,9.84399127960205,-0.0020226126071065664,-0.010040410794317722,-0.013361199758946896
4320.279761981,6.85978889465332,-0.4677911400794983,9.690264701843262,-0.001144437468610704,-0.0060832747258245945,-0.01563332974910736
4320.329761982,5.8923749923706055,-0.3592061996459961,9.685426712036133,-0.0008504809811711311,-0.0027397647500038147,-0.020969364792108536
4320.379761983,5.203549385070801,-0.2764448821544647,9.717279434204102,-0.0007037809118628502,-0.0005199509905651212,-0.020338768139481544
4320.429761984,4.433403015136719,-0.4285167157649994,9.727861404418945,-0.0013800107408314943,0.002565133385360241,-0.027795054018497467
4320.479761984,1.9609578847885132,-0.4220188856124878,9.661378860473633,-0.0009211194701492786,0.00832626037299633,-0.022054001688957214
4320.529761985,-1.3738298416137695,-0.47993114590644836,9.64272403717041,-0.0007518116617575288,0.013167405501008034,-0.0435100682079792
4320.579761986,-3.4712297916412354,-0.1771879345178604,9.736719131469727,-0.00035646517062559724,0.014277412556111813,-0.010328271426260471
4320.629761987,-4.475451946258545,-0.556796669960022,9.81766414642334,-0.00032163673313334584,0.013316597789525986,-0.05000164359807968
4320.679761987,-5.080111980438232,0.8417758941650391,9.855120658874512,0.004141463432461023,0.011416241526603699,0.018226362764835358
4320.729761988,-5.273640155792236,0.6244951486587524,9.87596321105957,0.002695435890927911,0.007769607938826084,-0.01871470920741558
4320.779761989,-4.1922783851623535,0.8855295181274414,9.93146800994873,0.001143234083428979,0.004346505273133516,0.04674258455634117
4320.82976199,-3.7988927364349365,-0.003243695944547653,9.879132270812988,0.0012143234489485621,0.002545301103964448,-0.01345787476748228
4320.87976199,-8.921316146850586,0.6439436078071594,9.535805702209473,0.0004281689180061221,0.014344397000968456,0.036305323243141174
4320.929761991,-11.156206130981445,0.08011418581008911,9.72048568725586,0.0008104461012408137,0.012386745773255825,0.007712326478213072
4320.979761992,-9.881789207458496,0.628537654876709,9.897332191467285,0.001104887342080474,0.007886725477874279,0.05218571051955223
4321.029761993,-8.89892578125,0.17958366870880127,9.906935691833496,0.0014093960635364056,0.0040175532922148705,0.002844450529664755
4321.079761993,-8.118451118469238,0.6989505887031555,9.878690719604492,-0.0006115871947258711,0.0010953019373118877,0.06715252250432968
4321.129761994,-7.285453796386719,-0.18197853863239288,9.859682083129883,0.0009097596048377454,-0.0009349400061182678,-0.01188686117529869
4321.179761995,-6.835194110870361,0.7338629961013794,9.824371337890625,-0.0012405682355165482,-0.0017863905522972345,0.07261814922094345
4321.229761996,-6.298901557922363,-1.1159820556640625,9.819541931152344,-0.0028605100233107805,-0.0033832176122814417,-0.0389828234910965
4321.279761996,-3.2761166095733643,-0.3192763328552246,9.961311340332031,-0.0029939599335193634,-0.010800158604979515,0.04446829855442047
4321.329761997,-0.23322764039039612,-1.0192220211029053,9.930214881896973,-0.0002782234805636108,-0.011920681223273277,-0.059438180178403854
4321.379761998,-2.593421697616577,0.3065390884876251,9.609611511230469,-0.0009057701681740582,0.0021796845830976963,0.0315706804394722
4321.429761999,-8.826777458190918,0.09933069348335266,9.461490631103516,0.0005384660325944424,0.005300561431795359,-0.01997809298336506
4321.479761999,-5.850798606872559,-0.33823496103286743,9.900402069091797,-0.0008560862625017762,-0.00021614963770844042,0.005032079294323921
4321.529762,-3.334895372390747,-0.5482390522956848,9.951446533203125,-6.610818672925234e-05,-0.004516057204455137,-0.030212989076972008
4321.579762001,-1.8498551845550537,-0.044458918273448944,9.898985862731934,-0.0001910369173856452,-0.006749999709427357,-0.005623362958431244
4321.629762002,-0.7566050291061401,-0.31338930130004883,9.84826946258545,7.079723582137376e-05,-0.007626207545399666,-0.031444258987903595
4321.679762002,0.15793931484222412,0.012449735775589943,9.827625274658203,-0.0001477851183153689,-0.008083612658083439,-0.007554628420621157
4321.729762003,1.1470177173614502,-0.022690536454319954,9.82327651977539,0.001119827851653099,-0.008481926284730434,-0.025626517832279205
4321.779762004,1.885807752609253,0.3376682996749878,9.7962064743042,0.0004307808994781226,-0.005836507771164179,0.002833576640114188
4321.829762005,0.2928224503993988,-0.11990823596715927,9.684749603271484,0.00011676279973471537,-0.002596606034785509,-0.02152792178094387
4321.879762005,0.15857873857021332,0.16885040700435638,9.765108108520508,-6.204997771419585e-05,-0.0034491363912820816,0.008259491994976997
4321.929762006,9.233262062072754,-0.14743900299072266,10.281150817871094,-0.00022897691815160215,-0.021346936002373695,-0.027254441753029823
4321.979762007,11.001611709594727,0.5129073858261108,9.832549095153809,0.0019450575346127152,-0.018090572208166122,0.024381522089242935
4322.029762007,9.4085693359375,0.08410802483558655,9.620803833007812,0.0005486487643793225,-0.01167075615376234,-0.016808561980724335
4322.079762008,8.152270317077637,0.4834569990634918,9.615084648132324,0.0006410882924683392,-0.00637664133682847,0.0294147040694952
4322.129762009,7.269855499267578,-0.12780530750751495,9.661666870117188,-0.00021037999249529094,-0.0028025596402585506,-0.013917110860347748
4322.17976201,6.675595283508301,0.36509472131729126,9.708210945129395,0.00044836843153461814,-0.0006119908066466451,0.030664660036563873
4322.22976201,6.120373725891113,-0.2437206357717514,9.733231544494629,-0.0006768950261175632,0.0015498223947361112,-0.01665937341749668
4322.279762011,4.393530368804932,0.30149754881858826,9.691102981567383,0.0004168807645328343,0.005888034123927355,0.040163423866033554
4322.329762012,2.114187002182007,-0.35999926924705505,9.690115928649902,-0.0006431772490032017,0.008839750662446022,-0.030649609863758087
4322.379762013,0.8957314491271973,0.4713383615016937,9.76517391204834,0.0004609572351910174,0.009459252469241619,0.043136779218912125
4322.429762013,0.2101425975561142,-0.39281365275382996,9.813924789428711,-0.0003816601529251784,0.008916611783206463,-0.03164621442556381
4322.479762014,-0.5081617832183838,0.2769727110862732,9.821602821350098,-0.0007661328418180346,0.009106295183300972,0.039365820586681366
4322.529762015,-2.1395273208618164,-0.7074456810951233,9.775140762329102,-0.0007573485490866005,0.010660815984010696,-0.043690748512744904
4322.579762016,-3.903686285018921,0.34167400002479553,9.768146514892578,-0.0002632891701068729,0.011727440170943737,0.035604871809482574
4322.629762016,-5.10032320022583,-0.5730381011962891,9.803628921508789,-1.2464748579077423e-05,0.011258010752499104,-0.04545500501990318
4322.679762017,-5.7296953201293945,0.3661593198776245,9.83504581451416,-0.0006346918526105583,0.009926201775670052,0.0335075743496418
4322.729762018,-6.059511661529541,-0.6196343898773193,9.848272323608398,0.0002258098975289613,0.008236631751060486,-0.04973076656460762
4322.779762019,-6.242931365966797,0.4197236895561218,9.850920677185059,-0.0006038802093826234,0.006507006473839283,0.03515871986746788
4322.829762019,-6.3002848625183105,-0.6001212000846863,9.846181869506836,0.0006193512817844748,0.004917399492114782,-0.05306989327073097
4322.87976202,-4.67677116394043,0.5924919843673706,9.931057929992676,-0.0005931265186518431,-0.0002501949784345925,0.04447370767593384
4322.929762021,-3.3997275829315186,-0.5657311677932739,9.899394035339355,0.0013412927510216832,-0.003522113198414445,-0.05418308824300766
4322.979762022,-5.286521911621094,0.44967424869537354,9.67703628540039,0.0007256978424265981,0.005067766178399324,-0.014619138091802597
4323.029762022,-15.919839859008789,-2.104341745376587,9.163568496704102,0.0004739639116451144,0.03244379162788391,-0.06172247976064682
4323.079762023,-25.630109786987305,0.4109688997268677,9.25901985168457,-0.0006434735259972513,0.03095647320151329,-0.06062459200620651
4323.129762024,-23.437894821166992,-1.044108510017395,9.809011459350586,-0.0005839866353198886,0.026882847771048546,-0.08089907467365265
4323.179762025,-18.031360626220703,0.14535647630691528,10.1918306350708,0.0003876493137795478,-0.0029908723663538694,-0.028813956305384636
4323.229762025,-0.7685332298278809,1.5016801357269287,10.768305778503418,-0.00023017619969323277,-0.02420792728662491,0.001986880088225007
4323.279762026,1.2268357276916504,0.31632474064826965,10.093335151672363,7.638713577762246e-05,-0.027388816699385643,0.008124363608658314
4323.329762027,2.5900535583496094,0.0830211490392685,9.839731216430664,0.00042771658627316356,-0.026995953172445297,0.009899021126329899
4323.379762028,3.7929768562316895,0.061464086174964905,9.743492126464844,0.0004634222132153809,-0.023595495149493217,0.010637735016644001
4323.429762028,4.900094509124756,0.7763234972953796,9.721301078796387,0.002922658808529377,-0.020724674686789513,0.027854232117533684
4323.479762029,5.411343097686768,0.6615430116653442,9.696724891662598,0.0012408930342644453,-0.01657882146537304,0.03282853215932846
4323.52976203,5.356939315795898,0.35988953709602356,9.682267189025879,0.0005214591510593891,-0.012603413313627243,0.03511517494916916
4323.579762031,5.263115406036377,0.29405471682548523,9.694859504699707,0.00032150986953638494,-0.009335992857813835,0.03725742548704147
4323.629762031,5.217486381530762,0.2833561301231384,9.7179536819458,0.0003102340560872108,-0.006855263374745846,0.0392654687166214
4323.679762032,5.238640785217285,-0.49609941244125366,9.738299369812012,-0.0025787861086428165,-0.005049139726907015,0.022207636386156082
4323.729762033,5.2151994705200195,-0.4098813235759735,9.812605857849121,-0.0009694276377558708,-0.004195766057819128,0.018560197204351425
4323.779762034,4.980266571044922,-0.05199973285198212,9.754974365234375,-7.541741069871932e-05,0.0003928704827558249,0.018728898838162422
4323.829762034,1.0919883251190186,0.0410039983689785,9.516496658325195,0.0003666172851808369,0.006381075829267502,0.018130995333194733
4323.879762035,-0.5866395235061646,0.04408056288957596,9.709095001220703,-4.819263267563656e-06,0.008979699574410915,0.017192458733916283
4323.929762036,0.8809890747070312,-0.42787036299705505,9.897599220275879,-0.0019291145727038383,0.0023933150805532932,0.004299124702811241
4323.979762037,1.484737753868103,-0.4712409973144531,9.88746452331543,-0.0006319157546386123,0.0024893542286008596,-0.0010361975291743875
4324.029762037,3.025439977645874,-0.20381812751293182,9.916082382202148,-9.108553786063567e-05,-0.003453959943726659,0.002558640670031309
4324.079762038,0.8239940404891968,-0.13148264586925507,9.698759078979492,0.0002239466120954603,0.004905424080789089,-0.003941010218113661
4324.129762039,0.15233837068080902,-0.04860631003975868,9.782306671142578,0.00014599667338188738,0.002486984943971038,-0.004401924088597298
4324.17976204,4.390775203704834,-0.062764473259449,10.102751731872559,-2.82688852166757e-05,-0.01634948141872883,-0.005369225516915321
4324.22976204,14.111701965332031,-0.08539168536663055,10.222528457641602,-2.1340816601878032e-05,-0.021372031420469284,-0.006073895376175642
4324.279762041,12.10407829284668,-0.07288578152656555,9.671463966369629,-1.1005791748175398e-05,-0.014562467113137245,-0.0066720712929964066
4324.329762042,9.743051528930664,0.13578489422798157,9.538158416748047,0.0008876381907612085,-0.005888462532311678,-0.0014026694698259234
4324.379762043,4.195629596710205,0.16045188903808594,9.391448020935059,0.0003682785318233073,0.009834960103034973,-2.6495035854168236e-05
4324.429762043,-0.25009050965309143,0.07000890374183655,9.534126281738281,0.00017292334814555943,0.014260804280638695,0.0007370755192823708
4324.479762044,-2.3075015544891357,0.033577144145965576,9.719337463378906,5.556770338444039e-05,0.017443591728806496,0.0010144925909116864
4324.529762045,-3.0248351097106934,0.020382791757583618,9.841106414794922,4.3725434807129204e-05,0.013708013109862804,0.001232565613463521
4324.579762045,-4.166904449462891,0.047661762684583664,9.843284606933594,0.00015220498607959598,0.014808068051934242,0.002135495189577341
4324.629762046,-4.232587814331055,0.05969727784395218,9.892743110656738,0.00012583413626998663,0.008559372276067734,0.002791385166347027
4324.679762047,-4.226902961730957,0.03689279407262802,9.889095306396484,3.485960405669175e-06,0.009172770194709301,0.002855786820873618
4324.729762048,-3.5145766735076904,0.029356393963098526,9.908411026000977,3.72299000446219e-05,0.002931713592261076,0.003086461452767253
4324.779762048,-9.27103328704834,0.01703837886452675,9.52536678314209,-5.158235580893233e-07,0.015136751346290112,0.002882598200812936
4324.829762049,-10.453408241271973,-0.022150801494717598,9.78974437713623,-0.00020063463307451457,0.01254636887460947,0.0016939733177423477
4324.87976205,-18.995162963867188,-0.03432486206293106,9.283687591552734,-0.00013705642777495086,0.03156733512878418,0.001251495792530477
4324.929762051,-26.107337951660156,-0.02166619524359703,9.442073822021484,-0.00010728013148764148,0.03485291078686714,0.0008632166427560151
4324.979762051,-26.32497787475586,-0.01957627758383751,9.723444938659668,-7.466638635378331e-05,0.030498087406158447,0.0005059064133092761
4325.029762052,-26.128707885742188,-0.017862485721707344,9.789094924926758,-5.334792876965366e-05,0.023629575967788696,0.00014263417688198388
4325.079762053,-17.415264129638672,-0.01014948170632124,10.348410606384277,-7.5654434112948366e-06,-0.011995937675237656,4.85675445816014e-06
4325.129762054,1.2071641683578491,-0.0029702617321163416,10.840514183044434,-1.120195520343259e-06,-0.03890567645430565,1.899516246339772e-05
4325.179762054,6.82286262512207,-0.006149434484541416,10.198278427124023,1.0779522199300118e-05,-0.040801919996738434,-0.00011625373008428141
4325.229762055,5.522983551025391,-0.0017867002170532942,9.671088218688965,1.5002869986346923e-05,-0.03020024672150612,-5.1024366257479414e-05
4325.279762056,3.816349506378174,0.02820700779557228,9.543025970458984,-0.00019851227989420295,-0.025093572214245796,-0.0006968325469642878
4325.329762057,2.940221071243286,-0.17843198776245117,9.547881126403809,-5.567483458435163e-05,-0.015117409639060497,-0.00601034564897418
4325.379762057,3.2816860675811768,0.07222643494606018,9.669395446777344,5.890360171179054e-06,-0.012621256522834301,0.00022500789782498032
4325.429762058,3.34169602394104,-0.008199610747396946,9.700823783874512,-1.0248946637148038e-05,-0.009029561653733253,0.002933694515377283
4325.479762059,3.3353352546691895,0.08381783962249756,9.726438522338867,-7.103559619281441e-05,-0.007174587808549404,-0.0020304976496845484
4325.52976206,2.9928066730499268,-0.06248031556606293,9.726285934448242,1.4118737453827634e-05,-0.003978324588388205,-0.00180712528526783
4325.57976206,3.865236520767212,0.10842040926218033,9.809308052062988,0.0001253292430192232,-0.004923110827803612,-0.0015468922210857272
4325.629762061,3.827150821685791,-0.017870618030428886,9.769706726074219,5.038410745328292e-05,-0.003418737556785345,0.0031024867203086615
4325.679762062,4.439145088195801,0.05628679692745209,9.80891227722168,-1.8986900613526814e-05,-0.0041981772519648075,-0.004291887395083904
4325.729762063,4.585912227630615,-0.011656536720693111,9.789595603942871,5.533099738386227e-06,-0.0032355000730603933,0.0018918421119451523
4325.779762063,4.982652187347412,0.004382626619189978,9.798699378967285,1.3004740139876958e-05,-0.003685710020363331,0.0018285755068063736
4325.829762064,5.219278812408447,-0.002804148942232132,9.7935791015625,-3.3387600524292793e-06,-0.0031770700588822365,0.0010051680728793144
4325.879762065,5.801076889038086,-0.006634443998336792,9.805999755859375,-5.535806849366054e-05,-0.00375582417473197,0.0006889516371302307
4325.929762066,5.912605285644531,-0.004868465941399336,9.784501075744629,-1.4201021258486435e-05,-0.002791659440845251,0.0006912458338774741
4325.979762066,5.608572006225586,0.0021316802594810724,9.762434005737305,2.8796262085961644e-06,-0.0016208125744014978,0.0007116915658116341
4326.029762067,5.329106330871582,0.00477634510025382,9.766728401184082,1.0233502507617231e-05,-0.0007681255810894072,0.0007554719340987504
4326.079762068,5.244357109069824,0.005268647335469723,9.77861499786377,1.195702589029679e-05,-0.0002941072452813387,0.0007964015821926296
4326.129762069,5.2044572830200195,-0.029932944104075432,9.787504196166992,-0.00012299614900257438,-7.918812480056658e-05,-4.465581878321245e-05
4326.179762069,5.209566116333008,-0.027497777715325356,9.822324752807617,-5.8526842622086406e-05,-4.895274469163269e-05,-0.00025722983991727233
4326.22976207,5.174568176269531,-0.010709249414503574,9.844078063964844,-2.241750962639344e-06,0.00033616781001910567,-0.00036360652302391827
4326.279762071,1.5904418230056763,-0.0041926163248717785,9.540677070617676,1.975226405193098e-05,0.011086366139352322,-0.00033538046409375966
4326.329762072,-0.30876624584198,-0.0015066356863826513,9.715295791625977,5.620561751129571e-06,0.007443403359502554,-0.00034738113754428923
4326.379762072,-0.06252855062484741,0.005507431924343109,9.8425874710083,4.346295463619754e-05,0.008758366107940674,-0.00015981945034582168
4326.429762073,-0.06578296422958374,0.007085280027240515,9.852097511291504,2.2428166630561464e-05,0.005453134421259165,-6.238133209990337e-05
4326.479762074,-9.09087085723877,0.0031656832434237003,9.32868480682373,5.035399226471782e-06,0.0261102132499218,-5.939520997344516e-05
4326.529762075,-15.649730682373047,0.0005936347879469395,9.547616004943848,9.055811460711993e-07,0.02987300045788288,-4.152484689257108e-05
4326.579762075,-16.494487762451172,0.0005635046400129795,9.787187576293945,-2.39914197663893e-06,0.02846589684486389,-3.474050390650518e-05
4326.629762076,-17.032562255859375,0.007435704581439495,9.853586196899414,-0.00014413423195946962,0.024082588031888008,0.0038592226337641478
4326.679762077,-7.5465922355651855,-0.09129968285560608,10.48535442352295,-9.825920278672129e-05,-0.013605988584458828,-0.00019876737496815622
4326.729762078,6.299676418304443,0.05624370276927948,10.577982902526855,-1.2222870282130316e-05,-0.025136388838291168,-0.0007660095579922199
4326.779762078,5.944677829742432,-0.02774282917380333,9.940311431884766,3.452262899372727e-05,-0.025677453726530075,-0.003122878959402442
4326.829762079,5.966323375701904,0.009502438828349113,9.728917121887207,5.641406460199505e-06,-0.02124282717704773,-0.0006749589811079204
4326.87976208,5.549988269805908,0.05287722870707512,9.649840354919434,0.0002262795896967873,-0.014893083833158016,0.0007568535511381924
4326.929762081,2.7192587852478027,0.04375986382365227,9.539485931396484,5.952556966803968e-05,-0.0049097295850515366,0.000993983936496079
4326.979762081,-0.535681426525116,0.014280098490417004,9.543524742126465,-8.511225132679101e-06,0.002661310136318207,0.0010235193185508251
4327.029762082,-2.9635610580444336,0.0029331520199775696,9.624350547790527,-4.1122657421510667e-05,0.00787449348717928,0.0009546694345772266
4327.079762083,-4.037640571594238,0.0004594678757712245,9.7377347946167,-3.675376865430735e-05,0.008368490263819695,0.0009074516710825264
4327.129762083,-4.661908149719238,-0.014377778396010399,9.798121452331543,-8.453105692751706e-05,0.008784151636064053,0.0005247571971267462
4327.179762084,-4.695570468902588,-0.01070389524102211,9.843948364257812,-3.696145722642541e-05,0.006324426736682653,0.00043108806130476296
4327.229762085,-6.144928932189941,-0.006070789415389299,9.746695518493652,-4.042381624458358e-05,0.016935890540480614,0.0003018115821760148
4327.279762086,-19.097057342529297,-0.035641372203826904,9.181265830993652,3.279334487160668e-05,0.03282255306839943,-0.004870320670306683
4327.329762086,-20.04719352722168,-0.1184435561299324,9.739095687866211,-0.0001614759094081819,0.016120949760079384,6.9354473453131504e-06
4327.379762087,-4.430772304534912,0.12417301535606384,10.63559627532959,-4.372462717583403e-05,-0.00804655160754919,1.5281680134648923e-06
4327.429762088,-0.45212501287460327,-0.002259951550513506,10.189671516418457,-9.086883437703364e-06,-0.014986484311521053,2.283898766108905e-06
4327.479762089,-0.13340511918067932,-0.0011357363546267152,9.879501342773438,3.2002390071284026e-07,-0.015084379352629185,1.7723853034112835e-06
4327.529762089,0.04867864400148392,9.740779933054e-05,9.763489723205566,2.2283738871919923e-06,-0.012855608947575092,1.110038283513859e-06
4327.57976209,0.09422068297863007,3.328983802930452e-05,9.732354164123535,1.3608000699605327e-06,-0.010171551257371902,6.212393941495975e-07
4327.629762091,0.06344521790742874,2.1048155758762732e-05,9.732503890991211,1.6094156762846978e-06,-0.007736471015959978,3.388700235973374e-07
4327.679762092,0.0616023913025856,-0.0003661583468783647,9.744431495666504,2.1153960005904082e-06,-0.005750217009335756,1.72277836441026e-07
4327.729762092,0.05392904579639435,0.00033347122371196747,9.758395195007324,1.2296843578951666e-06,-0.004213413223624229,8.08516347206023e-08
4327.779762093,0.03562843054533005,1.3980865332996473e-05,9.770798683166504,7.690308621022268e-07,-0.0030596714932471514,3.489442335080639e-08
4327.829762094,0.021858656778931618,-6.938692968105897e-05,9.780789375305176,5.608426363323815e-07,-0.002209434285759926,1.2861620213300284e-08
4327.879762095,0.027747564017772675,8.861061360221356e-05,9.78891372680664,2.754680394900788e-07,-0.0015897804405540228,-2.704276269582806e-08
4327.929762095,0.052755359560251236,-5.890127795282751e-05,9.755247116088867,-0.0,0.0,-0.0
4327.979762096,-0.0022572523448616266,-2.842170943040401e-14,9.8100004196167,-0.0,0.0,-0.0
4328.029762097,-0.0022572523448616266,-2.842170943040401e-14,9.8100004196167,-0.0,0.0,-0.0
4328.079762098,-0.0022572523448616266,-2.842170943040401e-14,9.8100004196167,-0.0,0.0,-0.0
4328.129762098,-0.04175644367933273,-1.3980864423501771e-05,9.756477355957031,-1.0338104630136513e-06,-0.0005988781340420246,6.025718146673853e-09
4328.179762099,0.02356063574552536,8.738040378375445e-06,9.862582206726074,-6.899339268784388e-07,-0.0007047720719128847,-7.216228059547802e-09
4328.2297621,-0.006105562672019005,-1.7476079392508836e-06,9.837265014648438,-3.7298451616152306e-07,-0.0006349481991492212,-1.024749352040999e-08
4328.279762101,-0.0008261280017904937,4.832543254451593e-10,9.816640853881836,-6.769636229364551e-08,-0.0005158786661922932,-9.694137936833158e-09
4328.329762101,0.004393985494971275,1.7518965478302562e-06,9.80836009979248,6.228094662219519e-08,-0.00039796161581762135,-7.016891512279244e-09
4328.379762102,0.009556105360388756,3.5710575048142346e-06,9.804610252380371,2.0041149184635287e-07,-0.0002981596044264734,-5.3616946438239665e-09
4328.429762103,-0.010318560525774956,-3.3791366149671376e-06,9.80484390258789,2.2833074808659148e-07,-0.00021931227820459753,-4.024671262925494e-09
4328.479762104,0.004770213738083839,1.8512188262320706e-06,9.80484390258789,-3.900030947079358e-07,-0.00016022499767132103,-2.9487350339252316e-09
4328.529762104,0.009801654145121574,3.7902900658082217e-06,9.799453735351562,5.541571681533242e-07,-6.0695441788993776e-05,1.4228465072818608e-09
4328.579762105,0.009832780808210373,3.6680853554571513e-06,9.810625076293945,-2.036132116245426e-07,-7.801824540365487e-05,-3.2031319263658986e-10
4328.629762106,-0.020125407725572586,-6.708739419991616e-06,9.811016082763672,-3.33350726577919e-07,-7.216526864795014e-05,-8.590160249788426e-10
4328.679762107,0.009905954822897911,3.5286911952425726e-06,9.808828353881836,-4.390996082292986e-07,-5.947427052888088e-05,-8.938154105742058e-10
4328.729762107,-7.314121467061341e-05,5.784680467968428e-08,9.80859375,-1.0777339412015863e-06,-4.5937551476527005e-05,-7.997619788646659e-10
4328.779762108,-5.224788765190169e-05,7.516729993994886e-08,9.809375762939453,-4.602093781613803e-07,-3.406173345865682e-05,-6.852482470343091e-10
4328.829762109,-5.2239978685975075e-05,7.515591704532198e-08,9.807890892028809,-4.5572909357360913e-07,-2.5378763893968426e-05,-2.4078622429257734e-10
4328.87976211,-0.005026128143072128,-1.676897340985306e-06,9.811797142028809,6.914719392625557e-07,-1.8024018572759815e-05,-3.440679963162552e-10
4328.92976211,0.004973880015313625,1.8182853409598465e-06,9.807188034057617,-2.397682052901473e-08,-4.744611487694783e-06,8.09395772627397e-10
4328.979762111,-2.6124564101337455e-05,7.069483842769841e-08,9.809609413146973,2.324054548807908e-08,-7.872020432841964e-06,6.401625757268548e-11
4329.029762112,-2.6127268938580528e-05,7.07021641233041e-08,9.810625076293945,1.5728778635093477e-07,-7.827237823221367e-06,-9.776889714485648e-11
4329.079762113,-2.6123942006961443e-05,7.069316154684202e-08,9.809375762939453,2.23169621449415e-07,-6.9489292400248814e-06,9.618013330214836e-11
4329.129762113,-5.226286702963989e-06,1.4370746725944628e-07,9.812188148498535,3.0975115805631503e-07,-5.547874479816528e-06,5.013006676435339e-11
4329.179762114,-5.223956577538047e-06,1.4364339051553543e-07,9.807812690734863,3.18178535962943e-07,-3.9797305362299085e-06,-7.80754835782993e-11
4329.229762115,-5.225121640251018e-06,1.436754217820635e-07,9.8100004196167,-1.4729865824847366e-06,-3.156030743411975e-06,-3.1098273262086806e-11
4329.279762116,-5.2254126785555854e-06,1.4368342249326815e-07,9.810546875,-2.085682240249298e-07,-1.8736327547230758e-06,-4.7416275766876126e-11
4329.329762116,-5.224830601946451e-06,1.4366742107085884e-07,9.809453964233398,4.7388940060955065e-07,-1.8296846064913552e-06,-4.538135145448763e-11
4329.379762117,-5.225121640251018e-06,1.436754217820635e-07,9.8100004196167,-0.0,0.0,-0.0
4329.429762118,-5.225121640251018e-06,1.436754217820635e-07,9.8100004196167,-0.0,0.0,-0.0
4329.479762119,-5.225121640251018e-06,1.436754217820635e-07,9.8100004196167,-0.0,0.0,-0.0
4329.529762119,-5.225121640251018e-06,1.436754217820635e-07,9.8100004196167,-0.0,0.0,-0.0
4329.57976212,-5.225121640251018e-06,1.436754217820635e-07,9.8100004196167,-0.0,0.0,-0.0
4329.629762121,-5.225121640251018e-06,1.436754217820635e-07,9.8100004196167,-0.0,0.0,-0.0
4329.679762121,-5.225121640251018e-06,1.436754217820635e-07,9.8100004196167,-0.0,0.0,-0.0
4329.729762122,-5.225121640251018e-06,1.436754217820635e-07,9.8100004196167,-0.0,0.0,-0.0
4329.779762123,-5.225121640251018e-06,1.436754217820635e-07,9.8100004196167,-0.0,0.0,-0.0
4329.829762124,-5.225121640251018e-06,1.436754217820635e-07,9.8100004196167,-0.0,0.0,-0.0
4329.879762124,-5.225121640251018e-06,1.436754217820635e-07,9.8100004196167,-0.0,0.0,-0.0
4329.929762125,-5.225121640251018e-06,1.436754217820635e-07,9.8100004196167,-0.0,0.0,-0.0
4329.979762126,-5.225121640251018e-06,1.436754217820635e-07,9.8100004196167,-0.0,0.0,-0.0
4330.029762127,-5.225121640251018e-06,1.436754217820635e-07,9.8100004196167,-0.0,0.0,-0.0
4330.079762127,-5.225121640251018e-06,1.436754217820635e-07,9.8100004196167,-0.0,0.0,-0.0
4330.129762128,-5.225121640251018e-06,1.436754217820635e-07,9.8100004196167,-0.0,0.0,-0.0
4330.179762129,-5.225121640251018e-06,1.436754217820635e-07,9.8100004196167,-0.0,0.0,-0.0
4330.22976213,-5.225121640251018e-06,1.436754217820635e-07,9.8100004196167,-0.0,0.0,-0.0
4330.27976213,-5.225121640251018e-06,1.436754217820635e-07,9.8100004196167,-0.0,0.0,-0.0
4330.329762131,-5.225121640251018e-06,1.436754217820635e-07,9.8100004196167,-0.0,0.0,-0.0
4330.379762132,-5.225121640251018e-06,1.436754217820635e-07,9.8100004196167,-0.0,0.0,-0.0
4330.429762133,-5.225121640251018e-06,1.436754217820635e-07,9.8100004196167,-0.0,0.0,-0.0
4330.479762133,-5.225121640251018e-06,1.436754217820635e-07,9.8100004196167,-0.0,0.0,-0.0
4330.529762134,-5.225121640251018e-06,1.436754217820635e-07,9.8100004196167,-0.0,0.0,-0.0
4330.579762135,-5.225121640251018e-06,1.436754217820635e-07,9.8100004196167,-0.0,0.0,-0.0
4330.629762136,-5.225121640251018e-06,1.436754217820635e-07,9.8100004196167,-0.0,0.0,-0.0
4330.679762136,-5.225121640251018e-06,1.436754217820635e-07,9.8100004196167,-0.0,0.0,-0.0
4330.729762137,-5.225121640251018e-06,1.436754217820635e-07,9.8100004196167,-0.0,0.0,-0.0
4330.779762138,-5.225121640251018e-06,1.436754217820635e-07,9.8100004196167,-0.0,0.0,-0.0
4330.829762139,-5.225121640251018e-06,1.436754217820635e-07,9.8100004196167,-0.0,0.0,-0.0
4330.879762139,-5.225121640251018e-06,1.436754217820635e-07,9.8100004196167,-0.0,0.0,-0.0
4330.92976214,-5.225121640251018e-06,1.436754217820635e-07,9.8100004196167,-0.0,0.0,-0.0
4330.979762141,-5.225121640251018e-06,1.436754217820635e-07,9.8100004196167,-0.0,0.0,-0.0
4331.029762142,-5.225121640251018e-06,1.436754217820635e-07,9.8100004196167,-0.0,0.0,-0.0
4331.079762142,-5.225121640251018e-06,1.436754217820635e-07,9.8100004196167,-0.0,0.0,-0.0
4331.129762143,-5.225121640251018e-06,1.436754217820635e-07,9.8100004196167,-0.0,0.0,-0.0
4331.179762144,-5.225121640251018e-06,1.436754217820635e-07,9.8100004196167,-0.0,0.0,-0.0
4331.229762145,-5.225121640251018e-06,1.436754217820635e-07,9.8100004196167,-0.0,0.0,-0.0
4331.279762145,-5.225121640251018e-06,1.436754217820635e-07,9.8100004196167,-0.0,0.0,-0.0
4331.329762146,-5.225121640251018e-06,1.436754217820635e-07,9.8100004196167,-0.0,0.0,-0.0
4331.379762147,-5.225121640251018e-06,1.436754217820635e-07,9.8100004196167,-0.0,0.0,-0.0
4331.429762148,-5.225121640251018e-06,1.436754217820635e-07,9.8100004196167,-0.0,0.0,-0.0
4331.479762148,-5.225121640251018e-06,1.436754217820635e-07,9.8100004196167,-0.0,0.0,-0.0
4331.529762149,-5.225121640251018e-06,1.436754217820635e-07,9.8100004196167,-0.0,0.0,-0.0
4331.57976215,-5.225121640251018e-06,1.436754217820635e-07,9.8100004196167,-0.0,0.0,-0.0
4331.629762151,-5.225121640251018e-06,1.436754217820635e-07,9.8100004196167,-0.0,0.0,-0.0
4331.679762151,-5.225121640251018e-06,1.436754217820635e-07,9.8100004196167,-0.0,0.0,-0.0
4331.729762152,-5.225121640251018e-06,1.436754217820635e-07,9.8100004196167,-0.0,0.0,-0.0
4331.779762153,-5.225121640251018e-06,1.436754217820635e-07,9.8100004196167,-0.0,0.0,-0.0
4331.829762154,-5.225121640251018e-06,1.436754217820635e-07,9.8100004196167,-0.0,0.0,-0.0
4331.879762154,-5.225121640251018e-06,1.436754217820635e-07,9.8100004196167,-0.0,0.0,-0.0
4331.929762155,-5.225121640251018e-06,1.436754217820635e-07,9.8100004196167,-0.0,0.0,-0.0
4331.979762156,-5.225121640251018e-06,1.436754217820635e-07,9.8100004196167,-0.0,0.0,-0.0
4332.029762157,-5.225121640251018e-06,1.436754217820635e-07,9.8100004196167,-0.0,0.0,-0.0
4332.079762157,-5.225121640251018e-06,1.436754217820635e-07,9.8100004196167,-0.0,0.0,-0.0
4332.129762158,-5.225121640251018e-06,1.436754217820635e-07,9.8100004196167,-0.0,0.0,-0.0
4332.179762159,-5.225121640251018e-06,1.436754217820635e-07,9.8100004196167,-0.0,0.0,-0.0
4332.229762159,-5.225121640251018e-06,1.436754217820635e-07,9.8100004196167,-0.0,0.0,-0.0
4332.27976216,-5.225121640251018e-06,1.436754217820635e-07,9.8100004196167,-0.0,0.0,-0.0
4332.329762161,-5.225121640251018e-06,1.436754217820635e-07,9.8100004196167,-0.0,0.0,-0.0
4332.379762162,-5.225121640251018e-06,1.436754217820635e-07,9.8100004196167,-0.0,0.0,-0.0
4332.429762162,-5.225121640251018e-06,1.436754217820635e-07,9.8100004196167,-0.0,0.0,-0.0
4332.479762163,-5.225121640251018e-06,1.436754217820635e-07,9.8100004196167,-0.0,0.0,-0.0
4332.529762164,-5.225121640251018e-06,1.436754217820635e-07,9.8100004196167,-0.0,0.0,-0.0
4332.579762165,-5.225121640251018e-06,1.436754217820635e-07,9.8100004196167,-0.0,0.0,-0.0
4332.629762165,-5.225121640251018e-06,1.436754217820635e-07,9.8100004196167,-0.0,0.0,-0.0
4332.679762166,-5.225121640251018e-06,1.436754217820635e-07,9.8100004196167,-0.0,0.0,-0.0
4332.729762167,-5.225121640251018e-06,1.436754217820635e-07,9.8100004196167,-0.0,0.0,-0.0
4332.779762168,-5.225121640251018e-06,1.436754217820635e-07,9.8100004196167,-0.0,0.0,-0.0
4332.829762168,-5.225121640251018e-06,1.436754217820635e-07,9.8100004196167,-0.0,0.0,-0.0
4332.879762169,-5.225121640251018e-06,1.436754217820635e-07,9.8100004196167,-0.0,0.0,-0.0
4332.92976217,-5.225121640251018e-06,1.436754217820635e-07,9.8100004196167,-0.0,0.0,-0.0
4332.979762171,-5.225121640251018e-06,1.436754217820635e-07,9.8100004196167,-0.0,0.0,-0.0
4333.029762171,-5.225121640251018e-06,1.436754217820635e-07,9.8100004196167,-0.0,0.0,-0.0
4333.079762172,-5.225121640251018e-06,1.436754217820635e-07,9.8100004196167,-0.0,0.0,-0.0
4333.129762173,-5.225121640251018e-06,1.436754217820635e-07,9.8100004196167,-0.0,0.0,-0.0
4333.179762174,-5.225121640251018e-06,1.436754217820635e-07,9.8100004196167,-0.0,0.0,-0.0
4333.229762174,-5.225121640251018e-06,1.436754217820635e-07,9.8100004196167,-0.0,0.0,-0.0
4333.279762175,-5.225121640251018e-06,1.436754217820635e-07,9.8100004196167,-0.0,0.0,-0.0
4333.329762176,-5.225121640251018e-06,1.436754217820635e-07,9.8100004196167,-0.0,0.0,-0.0
4333.379762177,-5.225121640251018e-06,1.436754217820635e-07,9.8100004196167,-0.0,0.0,-0.0
4333.429762177,-5.225121640251018e-06,1.436754217820635e-07,9.8100004196167,-0.0,0.0,-0.0
4333.479762178,-5.225121640251018e-06,1.436754217820635e-07,9.8100004196167,-0.0,0.0,-0.0
4333.529762179,-5.225121640251018e-06,1.436754217820635e-07,9.8100004196167,-0.0,0.0,-0.0
4333.57976218,-5.225121640251018e-06,1.436754217820635e-07,9.8100004196167,-0.0,0.0,-0.0
4333.62976218,-5.225121640251018e-06,1.436754217820635e-07,9.8100004196167,-0.0,0.0,-0.0
4333.679762181,-5.225121640251018e-06,1.436754217820635e-07,9.8100004196167,-0.0,0.0,-0.0
4333.729762182,-5.225121640251018e-06,1.436754217820635e-07,9.8100004196167,-0.0,0.0,-0.0
4333.779762183,-5.225121640251018e-06,1.436754217820635e-07,9.8100004196167,-0.0,0.0,-0.0
4333.829762183,-5.225121640251018e-06,1.436754217820635e-07,9.8100004196167,-0.0,0.0,-0.0
4333.879762184,-5.225121640251018e-06,1.436754217820635e-07,9.8100004196167,-0.0,0.0,-0.0
4333.929762185,-5.225121640251018e-06,1.436754217820635e-07,9.8100004196167,-0.0,0.0,-0.0
4333.979762186,-5.225121640251018e-06,1.436754217820635e-07,9.8100004196167,-0.0,0.0,-0.0
4334.029762186,-5.225121640251018e-06,1.436754217820635e-07,9.8100004196167,-0.0,0.0,-0.0
4334.079762187,-5.225121640251018e-06,1.436754217820635e-07,9.8100004196167,-0.0,0.0,-0.0
4334.129762188,-5.225121640251018e-06,1.436754217820635e-07,9.8100004196167,-0.0,0.0,-0.0
4334.179762189,-5.225121640251018e-06,1.436754217820635e-07,9.8100004196167,-0.0,0.0,-0.0
4334.229762189,-5.225121640251018e-06,1.436754217820635e-07,9.8100004196167,-0.0,0.0,-0.0
4334.27976219,-5.225121640251018e-06,1.436754217820635e-07,9.8100004196167,-0.0,0.0,-0.0
4334.329762191,-5.225121640251018e-06,1.436754217820635e-07,9.8100004196167,-0.0,0.0,-0.0
4334.379762192,-5.225121640251018e-06,1.436754217820635e-07,9.8100004196167,-0.0,0.0,-0.0
4334.429762192,-5.225121640251018e-06,1.436754217820635e-07,9.8100004196167,-0.0,0.0,-0.0
4334.479762193,-5.225121640251018e-06,1.436754217820635e-07,9.8100004196167,-0.0,0.0,-0.0
4334.529762194,-5.225121640251018e-06,1.436754217820635e-07,9.8100004196167,-0.0,0.0,-0.0
4334.579762195,-5.225121640251018e-06,1.436754217820635e-07,9.8100004196167,-0.0,0.0,-0.0
4334.629762195,-5.225121640251018e-06,1.436754217820635e-07,9.8100004196167,-0.0,0.0,-0.0
4334.679762196,-5.225121640251018e-06,1.436754217820635e-07,9.8100004196167,-0.0,0.0,-0.0
4334.729762197,-5.225121640251018e-06,1.436754217820635e-07,9.8100004196167,-0.0,0.0,-0.0
4334.779762197,-5.225121640251018e-06,1.436754217820635e-07,9.8100004196167,-0.0,0.0,-0.0
4334.829762198,-5.225121640251018e-06,1.436754217820635e-07,9.8100004196167,-0.0,0.0,-0.0
4334.879762199,-5.225121640251018e-06,1.436754217820635e-07,9.8100004196167,-0.0,0.0,-0.0
4334.9297622,-5.225121640251018e-06,1.436754217820635e-07,9.8100004196167,-0.0,0.0,-0.0
4334.9797622,-5.225121640251018e-06,1.436754217820635e-07,9.8100004196167,-0.0,0.0,-0.0
4335.029762201,-5.225121640251018e-06,1.436754217820635e-07,9.8100004196167,-0.0,0.0,-0.0
4335.079762202,-5.225121640251018e-06,1.436754217820635e-07,9.8100004196167,-0.0,0.0,-0.0
4335.129762203,-5.225121640251018e-06,1.436754217820635e-07,9.8100004196167,-0.0,0.0,-0.0
4335.179762203,-5.225121640251018e-06,1.436754217820635e-07,9.8100004196167,-0.0,0.0,-0.0
4335.229762204,-5.225121640251018e-06,1.436754217820635e-07,9.8100004196167,-0.0,0.0,-0.0
4335.279762205,-5.225121640251018e-06,1.436754217820635e-07,9.8100004196167,-0.0,0.0,-0.0
4335.329762206,-5.225121640251018e-06,1.436754217820635e-07,9.8100004196167,-0.0,0.0,-0.0
4335.379762206,-5.225121640251018e-06,1.436754217820635e-07,9.8100004196167,-0.0,0.0,-0.0
4335.429762207,-5.225121640251018e-06,1.436754217820635e-07,9.8100004196167,-0.0,0.0,-0.0
4335.479762208,-5.225121640251018e-06,1.436754217820635e-07,9.8100004196167,-0.0,0.0,-0.0
4335.529762209,-5.225121640251018e-06,1.436754217820635e-07,9.8100004196167,-0.0,0.0,-0.0
4335.579762209,-5.225121640251018e-06,1.436754217820635e-07,9.8100004196167,-0.0,0.0,-0.0
4335.62976221,-5.225121640251018e-06,1.436754217820635e-07,9.8100004196167,-0.0,0.0,-0.0
4335.679762211,-5.225121640251018e-06,1.436754217820635e-07,9.8100004196167,-0.0,0.0,-0.0
4335.729762212,-5.225121640251018e-06,1.436754217820635e-07,9.8100004196167,-0.0,0.0,-0.0
4335.779762212,-5.225121640251018e-06,1.436754217820635e-07,9.8100004196167,-0.0,0.0,-0.0
4335.829762213,-5.225121640251018e-06,1.436754217820635e-07,9.8100004196167,-0.0,0.0,-0.0
4335.879762214,-5.225121640251018e-06,1.436754217820635e-07,9.8100004196167,-0.0,0.0,-0.0
4335.929762215,-5.225121640251018e-06,1.436754217820635e-07,9.8100004196167,-0.0,0.0,-0.0
4335.979762215,-5.225121640251018e-06,1.436754217820635e-07,9.8100004196167,-0.0,0.0,-0.0
4336.029762216,-5.225121640251018e-06,1.436754217820635e-07,9.8100004196167,-0.0,0.0,-0.0
4336.079762217,-5.225121640251018e-06,1.436754217820635e-07,9.8100004196167,-0.0,0.0,-0.0
4336.129762218,-5.225121640251018e-06,1.436754217820635e-07,9.8100004196167,-0.0,0.0,-0.0
4336.179762218,-5.225121640251018e-06,1.436754217820635e-07,9.8100004196167,-0.0,0.0,-0.0
4336.229762219,-5.225121640251018e-06,1.436754217820635e-07,9.8100004196167,-0.0,0.0,-0.0
4336.27976222,-5.225121640251018e-06,1.436754217820635e-07,9.8100004196167,-0.0,0.0,-0.0
4336.329762221,-5.225121640251018e-06,1.436754217820635e-07,9.8100004196167,-0.0,0.0,-0.0
4336.379762221,-5.225121640251018e-06,1.436754217820635e-07,9.8100004196167,-0.0,0.0,-0.0
4336.429762222,-5.225121640251018e-06,1.436754217820635e-07,9.8100004196167,-0.0,0.0,-0.0
4336.479762223,-5.225121640251018e-06,1.436754217820635e-07,9.8100004196167,-0.0,0.0,-0.0
4336.529762224,-5.225121640251018e-06,1.436754217820635e-07,9.8100004196167,-0.0,0.0,-0.0
4336.579762224,-5.225121640251018e-06,1.436754217820635e-07,9.8100004196167,-0.0,0.0,-0.0
4336.629762225,-5.225121640251018e-06,1.436754217820635e-07,9.8100004196167,-0.0,0.0,-0.0
4336.679762226,-5.225121640251018e-06,1.436754217820635e-07,9.8100004196167,-0.0,0.0,-0.0
4336.729762227,-5.225121640251018e-06,1.436754217820635e-07,9.8100004196167,-0.0,0.0,-0.0
4336.779762227,-5.225121640251018e-06,1.436754217820635e-07,9.8100004196167,-0.0,0.0,-0.0
4336.829762228,-5.225121640251018e-06,1.436754217820635e-07,9.8100004196167,-0.0,0.0,-0.0
4336.879762229,-5.225121640251018e-06,1.436754217820635e-07,9.8100004196167,-0.0,0.0,-0.0
4336.92976223,-5.225121640251018e-06,1.436754217820635e-07,9.8100004196167,-0.0,0.0,-0.0
4336.97976223,-5.225121640251018e-06,1.436754217820635e-07,9.8100004196167,-0.0,0.0,-0.0
4337.029762231,-5.225121640251018e-06,1.436754217820635e-07,9.8100004196167,-0.0,0.0,-0.0
4337.079762232,-5.225121640251018e-06,1.436754217820635e-07,9.8100004196167,-0.0,0.0,-0.0
4337.129762233,-5.225121640251018e-06,1.436754217820635e-07,9.8100004196167,-0.0,0.0,-0.0
4337.179762233,-5.225121640251018e-06,1.436754217820635e-07,9.8100004196167,-0.0,0.0,-0.0
4337.229762234,-5.225121640251018e-06,1.436754217820635e-07,9.8100004196167,-0.0,0.0,-0.0
4337.279762235,-5.225121640251018e-06,1.436754217820635e-07,9.8100004196167,-0.0,0.0,-0.0
4337.329762235,-5.225121640251018e-06,1.436754217820635e-07,9.8100004196167,-0.0,0.0,-0.0
4337.379762236,-5.225121640251018e-06,1.436754217820635e-07,9.8100004196167,-0.0,0.0,-0.0
4337.429762237,-5.225121640251018e-06,1.436754217820635e-07,9.8100004196167,-0.0,0.0,-0.0
4337.479762238,-5.225121640251018e-06,1.436754217820635e-07,9.8100004196167,-0.0,0.0,-0.0
4337.529762238,-5.225121640251018e-06,1.436754217820635e-07,9.8100004196167,-0.0,0.0,-0.0
4337.579762239,-5.225121640251018e-06,1.436754217820635e-07,9.8100004196167,-0.0,0.0,-0.0
4337.62976224,-5.225121640251018e-06,1.436754217820635e-07,9.8100004196167,-0.0,0.0,-0.0
4337.679762241,-5.225121640251018e-06,1.436754217820635e-07,9.8100004196167,-0.0,0.0,-0.0
4337.729762241,-5.225121640251018e-06,1.436754217820635e-07,9.8100004196167,-0.0,0.0,-0.0
4337.779762242,-5.225121640251018e-06,1.436754217820635e-07,9.8100004196167,-0.0,0.0,-0.0
4337.829762243,-5.225121640251018e-06,1.436754217820635e-07,9.8100004196167,-0.0,0.0,-0.0
4337.879762244,-5.225121640251018e-06,1.436754217820635e-07,9.8100004196167,-0.0,0.0,-0.0
4337.929762244,-5.225121640251018e-06,1.436754217820635e-07,9.8100004196167,-0.0,0.0,-0.0
4337.979762245,-5.225121640251018e-06,1.436754217820635e-07,9.8100004196167,-0.0,0.0,-0.0
4338.029762246,-5.225121640251018e-06,1.436754217820635e-07,9.8100004196167,-0.0,0.0,-0.0
4338.079762247,-5.225121640251018e-06,1.436754217820635e-07,9.8100004196167,-0.0,0.0,-0.0
4338.129762247,-5.225121640251018e-06,1.436754217820635e-07,9.8100004196167,-0.0,0.0,-0.0
4338.179762248,-5.225121640251018e-06,1.436754217820635e-07,9.8100004196167,-0.0,0.0,-0.0
4338.229762249,-5.225121640251018e-06,1.436754217820635e-07,9.8100004196167,-0.0,0.0,-0.0
4338.27976225,-5.225121640251018e-06,1.436754217820635e-07,9.8100004196167,-0.0,0.0,-0.0
4338.32976225,-5.225121640251018e-06,1.436754217820635e-07,9.8100004196167,-0.0,0.0,-0.0
4338.379762251,-5.225121640251018e-06,1.436754217820635e-07,9.8100004196167,-0.0,0.0,-0.0
4338.429762252,-5.225121640251018e-06,1.436754217820635e-07,9.8100004196167,-0.0,0.0,-0.0
4338.479762253,-5.225121640251018e-06,1.436754217820635e-07,9.8100004196167,-0.0,0.0,-0.0
4338.529762253,-5.225121640251018e-06,1.436754217820635e-07,9.8100004196167,-0.0,0.0,-0.0
4338.579762254,-5.225121640251018e-06,1.436754217820635e-07,9.8100004196167,-0.0,0.0,-0.0
4338.629762255,-5.225121640251018e-06,1.436754217820635e-07,9.8100004196167,-0.0,0.0,-0.0
4338.679762256,-5.225121640251018e-06,1.436754217820635e-07,9.8100004196167,-0.0,0.0,-0.0
4338.729762256,-5.225121640251018e-06,1.436754217820635e-07,9.8100004196167,-0.0,0.0,-0.0
4338.779762257,-5.225121640251018e-06,1.436754217820635e-07,9.8100004196167,-0.0,0.0,-0.0
4338.829762258,-5.225121640251018e-06,1.436754217820635e-07,9.8100004196167,-0.0,0.0,-0.0
4338.879762259,-5.225121640251018e-06,1.436754217820635e-07,9.8100004196167,-0.0,0.0,-0.0
4338.929762259,-5.225121640251018e-06,1.436754217820635e-07,9.8100004196167,-0.0,0.0,-0.0
4338.97976226,-5.225121640251018e-06,1.436754217820635e-07,9.8100004196167,-0.0,0.0,-0.0
4339.029762261,-5.225121640251018e-06,1.436754217820635e-07,9.8100004196167,-0.0,0.0,-0.0
4339.079762262,-5.225121640251018e-06,1.436754217820635e-07,9.8100004196167,-0.0,0.0,-0.0
4339.129762262,-5.225121640251018e-06,1.436754217820635e-07,9.8100004196167,-0.0,0.0,-0.0
4339.179762263,-5.225121640251018e-06,1.436754217820635e-07,9.8100004196167,-0.0,0.0,-0.0
4339.229762264,-5.225121640251018e-06,1.436754217820635e-07,9.8100004196167,-0.0,0.0,-0.0
4339.279762265,-5.225121640251018e-06,1.436754217820635e-07,9.8100004196167,-0.0,0.0,-0.0
4339.329762265,-5.225121640251018e-06,1.436754217820635e-07,9.8100004196167,-0.0,0.0,-0.0
4339.379762266,-5.225121640251018e-06,1.436754217820635e-07,9.8100004196167,-0.0,0.0,-0.0
4339.429762267,-5.225121640251018e-06,1.436754217820635e-07,9.8100004196167,-0.0,0.0,-0.0
4339.479762268,-5.225121640251018e-06,1.436754217820635e-07,9.8100004196167,-0.0,0.0,-0.0
4339.529762268,-5.225121640251018e-06,1.436754217820635e-07,9.8100004196167,-0.0,0.0,-0.0
4339.579762269,-5.225121640251018e-06,1.436754217820635e-07,9.8100004196167,-0.0,0.0,-0.0
4339.62976227,-5.225121640251018e-06,1.436754217820635e-07,9.8100004196167,-0.0,0.0,-0.0
4339.679762271,-5.225121640251018e-06,1.436754217820635e-07,9.8100004196167,-0.0,0.0,-0.0
4339.729762271,-5.225121640251018e-06,1.436754217820635e-07,9.8100004196167,-0.0,0.0,-0.0
4339.779762272,-5.225121640251018e-06,1.436754217820635e-07,9.8100004196167,-0.0,0.0,-0.0
4339.829762273,-5.225121640251018e-06,1.436754217820635e-07,9.8100004196167,-0.0,0.0,-0.0
4339.879762273,-5.225121640251018e-06,1.436754217820635e-07,9.8100004196167,-0.0,0.0,-0.0
4339.929762274,-5.225121640251018e-06,1.436754217820635e-07,9.8100004196167,-0.0,0.0,-0.0
4339.979762275,-5.225121640251018e-06,1.436754217820635e-07,9.8100004196167,-0.0,0.0,-0.0
4340.029762276,-5.225121640251018e-06,1.436754217820635e-07,9.8100004196167,-0.0,0.0,-0.0
4340.079762276,-5.225121640251018e-06,1.436754217820635e-07,9.8100004196167,-0.0,0.0,-0.0
4340.129762277,-5.225121640251018e-06,1.436754217820635e-07,9.8100004196167,-0.0,0.0,-0.0
4340.179762278,-5.225121640251018e-06,1.436754217820635e-07,9.8100004196167,-0.0,0.0,-0.0
4340.229762279,-5.225121640251018e-06,1.436754217820635e-07,9.8100004196167,-0.0,0.0,-0.0
4340.279762279,-5.225121640251018e-06,1.436754217820635e-07,9.8100004196167,-0.0,0.0,-0.0
4340.32976228,-5.225121640251018e-06,1.436754217820635e-07,9.8100004196167,-0.0,0.0,-0.0
4340.379762281,-5.225121640251018e-06,1.436754217820635e-07,9.8100004196167,-0.0,0.0,-0.0
4340.429762282,-5.225121640251018e-06,1.436754217820635e-07,9.8100004196167,-0.0,0.0,-0.0
4340.479762282,-5.225121640251018e-06,1.436754217820635e-07,9.8100004196167,-0.0,0.0,-0.0
4340.529762283,-5.225121640251018e-06,1.436754217820635e-07,9.8100004196167,-0.0,0.0,-0.0
4340.579762284,-5.225121640251018e-06,1.436754217820635e-07,9.8100004196167,-0.0,0.0,-0.0
4340.629762285,-5.225121640251018e-06,1.436754217820635e-07,9.8100004196167,-0.0,0.0,-0.0
4340.679762285,-5.225121640251018e-06,1.436754217820635e-07,9.8100004196167,-0.0,0.0,-0.0
4340.729762286,-5.225121640251018e-06,1.436754217820635e-07,9.8100004196167,-0.0,0.0,-0.0
4340.779762287,-5.225121640251018e-06,1.436754217820635e-07,9.8100004196167,-0.0,0.0,-0.0
4340.829762288,-5.225121640251018e-06,1.436754217820635e-07,9.8100004196167,-0.0,0.0,-0.0
4340.879762288,-5.1805968723783735e-06,1.424511282266394e-07,9.726407051086426,-1.249937042757665e-07,-5.279168249217037e-07,6.910147367505948e-12
4340.929762289,-5.258285909803817e-06,1.4458734653999272e-07,9.872265815734863,-2.1918856418778887e-06,-8.703198659532063e-07,1.5289707000487596e-10
4340.97976229,0.9657537937164307,-0.00020873453468084335,9.883599281311035,-5.1160668590455316e-08,-0.0006548038218170404,-4.462289780349238e-06
4341.029762291,0.3510715663433075,0.0002790736616589129,9.793712615966797,1.0862225963137462e-06,-0.0008310323464684188,1.3965253629066865e-06
4341.079762291,-0.06405754387378693,-0.00010017721797339618,9.783913612365723,-3.951803932977782e-07,0.000898021156899631,-2.8230849693500204e-06
4341.129762292,1.7125145196914673,0.0013061510398983955,9.910191535949707,1.6948411939665675e-05,-0.006917074788361788,0.00011262432235525921
4341.179762293,3.74015736579895,-0.09665707498788834,9.86900520324707,0.0004209221515338868,-0.0058549679815769196,0.002333543263375759
4341.229762294,2.716836452484131,0.19187170267105103,9.760892868041992,-0.0002671868132892996,-0.001887562102638185,0.02073427103459835
4341.279762294,2.9237213134765625,-0.11703852564096451,9.797104835510254,0.00014664727495983243,-0.003301747841760516,0.0031795077957212925
4341.329762295,2.9049863815307617,0.06608003377914429,9.781251907348633,0.00015237188199535012,-0.003408248070627451,0.016029026359319687
4341.379762296,3.011179208755493,-0.25222331285476685,9.782562255859375,-2.4413073333562352e-05,-0.0018370863981544971,-0.0022155919577926397
4341.429762297,3.3469629287719727,0.28339600563049316,9.812196731567383,-2.3921482352307066e-05,-0.0024823793210089207,0.007252153009176254
4341.479762297,3.342879056930542,0.08693559467792511,9.786303520202637,5.5613432778045535e-05,-0.0015388596802949905,0.015705980360507965
4341.529762298,3.688913583755493,-0.007988736033439636,9.813844680786133,0.00022967752011027187,-0.002585933543741703,-0.005373327061533928
4341.579762299,3.5795254707336426,-0.05463412404060364,9.785402297973633,6.971095717744902e-05,-0.0004258833942003548,0.002339473692700267
4341.6297623,2.449183702468872,-0.05335323140025139,9.748712539672852,-4.4258293200982735e-05,0.0009017877746373415,0.0006216104957275093
4341.6797623,3.239457607269287,0.002529991790652275,9.831263542175293,2.743995537457522e-05,-0.0014270612737163901,0.006133394315838814
4341.729762301,4.095334053039551,-0.05881321802735329,9.846994400024414,-5.916552254348062e-05,-0.0023603469599038363,-0.0017270453972741961
4341.779762302,4.231229782104492,-0.00935148261487484,9.808483123779297,-2.9648565032402985e-05,-0.002245323034003377,-0.001157039892859757
4341.829762303,4.3972368240356445,0.019431069493293762,9.806039810180664,-8.616388186055701e-06,-0.0019875920843333006,0.00045625166967511177
4341.879762303,4.9785685539245605,-0.013062650337815285,9.818655014038086,-6.175147427711636e-05,-0.003036137670278549,0.0003001074946951121
4341.929762304,5.28494119644165,-0.02468293532729149,9.804902076721191,-2.7494934329297394e-05,-0.002773500047624111,-0.0007480541826225817
4341.979762305,5.786571025848389,-0.005797469988465309,9.810200691223145,-1.3920935089117847e-05,-0.0035055389162153006,-0.0008162518497556448
4342.029762306,5.968005657196045,-0.008658027276396751,9.788588523864746,-8.73251337907277e-06,-0.0026424918323755264,-0.000895039935130626
4342.079762306,5.633899211883545,0.03691065311431885,9.763745307922363,0.00014570450002793223,-0.0015000028070062399,7.722202281001955e-05
4342.129762307,5.369375228881836,0.028432592749595642,9.766637802124023,4.9298483645543456e-05,-0.0006507164798676968,0.00026564591098576784
4342.179762308,5.239575386047363,0.008979907259345055,9.778668403625488,4.616862497641705e-06,-0.00018574185378383845,0.00031808859785087407
4342.229762308,5.2096266746521,0.004826435353606939,9.78818416595459,-8.257774425146636e-06,1.5590701877954416e-05,0.0003426989133004099
4342.279762309,5.199613094329834,0.0031668548472225666,9.793691635131836,-8.266086297226138e-06,6.187178223626688e-05,0.0003613606677390635
4342.32976231,5.009561538696289,-0.009094346314668655,9.881335258483887,-5.3914358431939036e-05,0.0014644578332081437,5.452952791529242e-06
4342.379762311,1.7354339361190796,-0.007224069442600012,9.547245979309082,-1.8374677893007174e-05,0.00924474373459816,6.357920210575685e-05
4342.429762311,-2.145531177520752,-0.0022146289702504873,9.611054420471191,-1.0324096365366131e-05,0.013896857388317585,6.489080078608822e-06
4342.479762312,-2.1008999347686768,-0.0012008819030597806,9.810625076293945,-3.1944632610247936e-06,0.00873096939176321,-1.770459311956074e-05
4342.529762313,-1.444853663444519,-0.000646761734969914,9.90567398071289,-4.1488347051199526e-06,0.006308411248028278,-3.936213033739477e-06
4342.579762314,-1.2126033306121826,-1.9323002561577596e-05,9.864982604980469,-2.089260988213937e-06,0.005295300856232643,-5.373866770241875e-06
4342.629762314,-2.130493640899658,-0.052255332469940186,9.840360641479492,-0.00018392350466456264,0.0065213474445044994,-0.001233389601111412
4342.679762315,-3.8392014503479004,-0.041899584233760834,9.77592658996582,-5.232236799201928e-05,0.00824718177318573,-0.0014762917999178171
4342.729762316,-5.173488616943359,-0.015510641038417816,9.778637886047363,1.320054434472695e-05,0.008807128295302391,-0.0014682755572721362
4342.779762317,-5.647580623626709,-0.004898912739008665,9.82050895690918,3.519151505315676e-05,0.007755286060273647,-0.0013958693016320467
4342.829762317,-5.645959377288818,-0.0018960514571517706,9.845396041870117,4.05437640438322e-05,0.006105022504925728,-0.0013094998430460691
4342.879762318,-5.063085556030273,0.059698686003685,9.87880802154541,0.00020999883417971432,0.0024887602776288986,0.0005968324840068817
4342.929762319,-2.887873649597168,0.03194941580295563,9.948817253112793,6.0881939134560525e-05,-0.0026081851683557034,0.0002780610811896622
4342.97976232,-1.3307775259017944,0.013849565759301186,9.909379005432129,-9.110185601457488e-07,-0.0047876061871647835,0.00031856304849497974
4343.02976232,-0.4078422784805298,0.004078867379575968,9.860180854797363,-1.5409332263516262e-05,-0.006283861119300127,0.0003331857733428478
4343.079762321,0.1052091047167778,0.0015728776343166828,9.81909465789795,-1.9805494957836345e-05,-0.005885124672204256,0.00033258821349591017
4343.129762322,0.6432008147239685,-0.010253683663904667,9.808730125427246,-5.363379023037851e-05,-0.006311965640634298,6.710765592288226e-05
4343.179762323,1.6364843845367432,-0.008107392117381096,9.829493522644043,-2.206190038123168e-05,-0.007108612451702356,1.8550812455941923e-05
4343.229762323,3.1955032348632812,-0.0014132577925920486,9.853352546691895,-6.530526661663316e-06,-0.008791562169790268,1.4491758520307485e-05
4343.279762324,4.349883556365967,-0.0012383703142404556,9.829715728759766,-2.0642419258365408e-06,-0.008869471028447151,1.5424186130985618e-05
4343.329762325,4.818961143493652,-1.2066913768649101e-05,9.788797378540039,1.8243021031594253e-06,-0.00790711585432291,1.6067919204942882e-05
4343.379762326,4.9474053382873535,0.000643776380456984,9.765287399291992,1.800225732040417e-06,-0.0065466416999697685,1.743529901432339e-05
4343.429762326,5.040207862854004,-0.0007379958406090736,9.761693954467773,2.130420398316346e-06,-0.0052360123954713345,1.858900759543758e-05
4343.479762327,5.107433795928955,0.0012257536873221397,9.76465129852295,7.498906029468344e-07,-0.004113205708563328,1.9696288291015662e-05
4343.529762328,5.174462795257568,-0.0007904856465756893,9.84831428527832,8.025194233596267e-07,-0.0034967437386512756,2.1070163711556233e-05
4343.579762329,4.599826812744141,0.0008356338366866112,9.706018447875977,2.351930561417248e-07,0.0013935590395703912,3.0122575481073e-05
4343.629762329,-0.06406315416097641,-0.001190967857837677,9.509574890136719,5.557349140872248e-07,0.009910519234836102,2.515580774797854e-07
4343.67976233,0.06785566359758377,0.00033120097941718996,9.795778274536133,-5.174006219021976e-07,0.0049806986935436726,9.587201930116862e-06
4343.729762331,0.5954367518424988,0.00024652929278090596,9.870001792907715,-1.832706743698509e-06,0.005113999824970961,-1.5897876437520608e-07
4343.779762332,2.1399497985839844,5.8114645071327686e-05,9.927704811096191,-3.2168259167519864e-09,-0.0014451855095103383,3.142269270028919e-05
4343.829762332,2.595132350921631,0.00041866768151521683,9.857573509216309,1.5931618690956384e-08,0.00178617297206074,5.332992259354796e-06
4343.879762333,0.7287065982818604,-0.000497783359605819,9.716851234436035,-4.790362027051742e-07,0.002344356616958976,8.979803169495426e-06
4343.929762334,-0.21326202154159546,0.00017436320194974542,9.76725959777832,-1.0909482170973206e-06,0.005182147957384586,-4.579015239869477e-06
4343.979762335,7.337928295135498,0.0004171340260654688,10.267256736755371,1.6782651073299348e-06,-0.02010352723300457,4.8901707486948e-05
4344.029762335,13.883275985717773,0.0016527199186384678,10.0675048828125,4.345650268078316e-06,-0.019894180819392204,7.861728226998821e-05
4344.079762336,11.790191650390625,-5.957437679171562e-05,9.6345796585083,5.1285478548379615e-06,-0.0137303676456213,3.8805879739811644e-05
4344.129762337,9.198628425598145,0.04432637244462967,9.525677680969238,0.00019125307153444737,-0.0031246442813426256,0.0012957880971953273
4344.179762338,3.8858513832092285,0.044523339718580246,9.410910606384277,8.470156899420545e-05,0.009002553299069405,0.0015216580359265208
4344.229762338,-0.5853478312492371,0.023942939937114716,9.545372009277344,8.521334166289307e-06,0.016419949010014534,0.0016166383866220713
4344.279762339,-2.0075771808624268,0.018383532762527466,9.752196311950684,2.0650317310355604e-05,0.015021074563264847,0.0017484461423009634
4344.32976234,-3.4202466011047363,0.012507826089859009,9.815279006958008,-1.5168459867709316e-05,0.016429979354143143,0.001681530848145485
4344.379762341,-3.7919318675994873,-0.029946543276309967,9.876883506774902,-0.000199659145437181,0.01163172721862793,0.0005954836378805339
4344.429762341,-4.74300479888916,-0.03872616961598396,9.848633766174316,-8.673490083310753e-05,0.012859262526035309,7.078969792928547e-05
4344.479762342,-3.9070558547973633,-0.020777087658643723,9.933635711669922,-4.5076732931192964e-05,0.005150570999830961,-0.00020603134180419147
4344.529762343,-4.0350341796875,-0.010594647377729416,9.864730834960938,-1.0511354048503563e-05,0.0069771925918757915,-0.00033536111004650593
4344.579762344,-7.255324363708496,-0.005949526559561491,9.63895320892334,-3.203301275789272e-06,0.0174361951649189,-0.0005218502483330667
4344.629762344,-11.257572174072266,0.007745761424303055,9.682723999023438,3.8450445572379977e-05,0.01033636461943388,-0.00012134839198552072
4344.679762345,-15.793316841125488,0.006133164279162884,9.461074829101562,5.636755304294638e-06,0.02878968045115471,-0.00013504656089935452
4344.729762346,-25.98877716064453,0.0016778253484517336,9.322543144226074,-6.070358722354285e-07,0.034867823123931885,-0.0001067472476279363
4344.779762346,-26.317047119140625,0.0011841274099424481,9.69011116027832,-5.712987331207842e-06,0.03145322948694229,-8.248019003076479e-05
4344.829762347,-26.206523895263672,0.0009253630414605141,9.781814575195312,-7.178805390140042e-06,0.025033868849277496,-5.30746765434742e-05
4344.879762348,-20.57486915588379,0.003363601164892316,10.162209510803223,-8.780581083556172e-06,-0.005867077969014645,3.288138032075949e-06
4344.929762349,-0.08133814483880997,-0.005023300647735596,10.937275886535645,-2.9446058761095628e-05,-0.03751331567764282,-0.00011378866474842653
4344.979762349,6.7797369956970215,-0.009646883234381676,10.285077095031738,-1.6868671082193032e-05,-0.04127133637666702,-0.00022452548728324473
4345.02976235,5.740876197814941,-0.006532338447868824,9.712438583374023,7.415624168061186e-06,-0.03189332038164139,-0.00023928687733132392
4345.079762351,3.984816074371338,-0.03460641950368881,9.53299331665039,4.890046329819597e-05,-0.023847952485084534,-0.004604029469192028
4345.129762352,3.299309253692627,-0.10969243198633194,9.568939208984375,0.0001925612159539014,-0.016306878998875618,-0.015858395025134087
4345.179762352,3.8716025352478027,0.23187652230262756,9.674079895019531,-0.00023591563513036817,-0.013446332886815071,0.01782505214214325
4345.229762353,3.471935987472534,0.07586296647787094,9.671650886535645,6.25870015937835e-05,-0.010460189543664455,0.004939276725053787
4345.279762354,3.1405105590820312,-0.1386253833770752,9.70040225982666,2.4955186745501123e-05,-0.00550235528498888,0.00044149786117486656
4345.329762355,3.4833261966705322,-0.018530067056417465,9.755390167236328,-2.1275875042192638e-05,-0.004961693659424782,-0.0011027639266103506
4345.379762355,3.190187931060791,0.0064449911005795,9.750109672546387,-4.18911840824876e-05,-0.003267481690272689,-0.0001563146070111543
4345.429762356,3.837078094482422,0.006201102863997221,9.802391052246094,-1.8481918232282624e-05,-0.004070896189659834,-0.00017592146468814462
4345.479762357,4.243886470794678,0.000569027615711093,9.802359580993652,-2.5207800717907958e-06,-0.0034804081078618765,0.000331028422806412
4345.529762358,4.835869789123535,0.007376460824161768,9.811881065368652,1.564223384775687e-05,-0.004316904116421938,0.0014177567791193724
4345.579762358,5.157773494720459,-0.012123162858188152,9.797696113586426,8.855772648530547e-07,-0.003687887219712138,-9.911273809848353e-05
4345.629762359,5.59472131729126,-0.03669477999210358,9.800017356872559,-0.00014135324454400688,-0.004135768860578537,-0.0009428043849766254
4345.67976236,5.981645107269287,-0.03202583268284798,9.795644760131836,-4.999050361220725e-05,-0.0036848613526672125,-0.0011894815834239125
4345.729762361,5.8730621337890625,-0.016904881224036217,9.7689847946167,-9.54884490056429e-06,-0.00248750695027411,-0.0012877366971224546
4345.779762361,5.4988861083984375,-0.01119554229080677,9.757986068725586,-6.68616735310934e-07,-0.0012982243206351995,-0.001386349555104971
4345.829762362,5.304314136505127,-0.01116696186363697,9.76926040649414,-3.1053907605382847e-06,-0.0005532789509743452,-0.0014673657715320587
4345.879762363,5.2344746589660645,0.05528593435883522,9.781465530395508,0.0002352020819671452,-0.00016903728828765452,2.631822098919656e-05
4345.929762364,5.18952751159668,0.046285953372716904,9.789920806884766,8.856086060404778e-05,-1.5319446902140044e-05,0.00038121972465887666
4345.979762364,5.219724655151367,0.016589969396591187,9.865628242492676,1.8719583749771118e-05,1.8809438188327476e-05,0.0004863541980739683
4346.029762365,4.498515605926514,0.008471202105283737,9.725954055786133,-1.0363188266637735e-05,0.0042964983731508255,0.0005294762086123228
4346.079762366,-0.1614779829978943,0.002223999472334981,9.53775405883789,-2.9585949960164726e-05,0.011741925962269306,0.0004870209959335625
4346.129762367,0.04978378862142563,-0.009169813245534897,9.817124366760254,-6.49063367745839e-05,0.006224844139069319,0.00021121453028172255
4346.179762367,0.5918615460395813,-0.010106024332344532,9.883047103881836,-3.4234722988912836e-05,0.005999919958412647,8.167127089109272e-05
4346.229762368,2.1660125255584717,-0.004205379169434309,9.936042785644531,-1.508430068497546e-05,-0.0008093776414170861,9.437664994038641e-05
4346.279762369,2.57092022895813,-0.0010185763239860535,9.86325454711914,-6.811407729401253e-06,0.0022636379580944777,1.3965355719847139e-05
4346.32976237,0.7442800402641296,-0.0023636927362531424,9.720388412475586,-3.0317257824208355e-06,0.00272188987582922,7.47128069633618e-06
4346.37976237,-0.21783937513828278,-0.00011525201261974871,9.770240783691406,-3.2406337595602963e-06,0.005457862745970488,-5.719381533708656e-06
4346.429762371,7.243173122406006,0.0005119005218148232,10.265405654907227,3.1525678423349746e-07,-0.019527364522218704,4.864422953687608e-05
4346.479762372,13.307790756225586,0.0015461795264855027,10.040802955627441,3.875097718264442e-06,-0.01783590577542782,7.841142360121012e-05
4346.529762373,10.158047676086426,-0.0002829809673130512,9.583950996398926,4.11285736845457e-06,-0.008802436292171478,5.746880924561992e-05
4346.579762373,5.093088626861572,-0.0001469937851652503,9.434186935424805,8.806389359961031e-07,0.002270735101774335,2.967661203001626e-05
4346.629762374,3.9369006156921387,0.0005861305980943143,9.654151916503906,7.032938356132945e-07,0.00487087806686759,3.037436727026943e-05
4346.679762375,1.3626792430877686,-0.0008622054010629654,9.659015655517578,-3.452103101153625e-07,0.011333882808685303,1.220234753418481e-05
4346.729762376,-0.8130105137825012,0.00041455955943092704,9.714953422546387,-1.2520397376647452e-06,0.011839077807962894,8.885746865416877e-06
4346.779762376,-2.599504232406616,-0.00011802802328020334,9.76740837097168,-1.421928118361393e-06,0.0144992396235466,-1.4538551113219e-05
4346.829762377,-3.160475730895996,-0.0005272565176710486,9.846844673156738,-2.5260719667130616e-06,0.010612099431455135,-1.4527038729283959e-05
4346.879762378,-4.2011919021606445,-0.00023895397316664457,9.829567909240723,-2.6743218768388033e-06,0.012375852093100548,-3.4310593036934733e-05
4346.929762379,-4.005568504333496,0.00017915316857397556,9.89157485961914,-5.552889433602104e-06,0.005923003423959017,-2.6357323804404587e-05
4346.979762379,-4.043924331665039,-0.0010861644987016916,9.866347312927246,-4.875311105934088e-07,0.00764689315110445,-3.8455840694950894e-05
4347.02976238,-4.677371978759766,0.00020370213314890862,9.793632507324219,-2.3266168227564776e-06,0.01344474870711565,-3.626946636359207e-05
4347.079762381,-10.609025955200195,-0.00038149161264300346,9.56902027130127,2.464375938870944e-07,0.011470668017864227,-3.39593825628981e-05
4347.129762382,-9.645440101623535,0.6686410307884216,9.820820808410645,-0.001178381615318358,0.020021840929985046,0.05939662456512451
4347.179762382,-21.995607376098633,0.7302648425102234,9.152663230895996,-0.0004341567982919514,0.03360171616077423,0.04097473993897438
4347.229762383,-26.188783645629883,-0.43677687644958496,9.52927017211914,0.0005634319968521595,0.034331873059272766,0.02685682475566864
4347.279762384,-26.279932022094727,-0.21790486574172974,9.746603012084961,0.0011006275890395045,0.029127046465873718,0.015111223794519901
4347.329762384,-25.25768280029297,-0.24668484926223755,9.847040176391602,0.0020914538763463497,0.017198501154780388,2.1745881895185448e-05
4347.379762385,-9.482434272766113,0.07262736558914185,10.731966018676758,-3.9063161239027977e-07,-0.020671019330620766,6.833856787125114e-06
4347.429762386,1.7264724969863892,0.020111139863729477,10.514863967895508,-0.0006899911095388234,-0.03888944908976555,-0.000898605037946254
4347.479762387,6.534045219421387,-0.06622616946697235,10.071422576904297,-0.000643201288767159,-0.0387972928583622,-0.001904247677884996
4347.529762387,5.267171859741211,-0.05776970461010933,9.628888130187988,-0.0003216274781152606,-0.026959441602230072,-0.002461789408698678
4347.579762388,2.833178758621216,-0.12448680400848389,9.503745079040527,-0.00017454363114666194,-0.021313799545168877,-0.013955463655292988
4347.629762389,3.3265037536621094,-0.09128772467374802,9.628652572631836,-0.0001543636026326567,-0.014857129193842411,-0.021476099267601967
4347.67976239,3.3733668327331543,0.036733925342559814,9.678223609924316,-0.00010219289106316864,-0.010246933437883854,-0.01703386753797531
4347.72976239,3.357775926589966,-0.01920836791396141,9.709022521972656,-0.000320281891617924,-0.008500531315803528,-0.0016532700974494219
4347.779762391,2.460824728012085,0.07693682610988617,9.682051658630371,-0.00013359621516428888,-0.0039184680208563805,-0.003970002755522728
4347.829762392,2.692542552947998,0.011016558855772018,9.763880729675293,7.542929233750328e-05,-0.004288058262318373,-0.0028925545047968626
4347.879762393,3.169365167617798,0.015097923576831818,9.79536247253418,-1.0500052667339332e-05,-0.0032601181883364916,-0.0028665023855865
4347.929762393,3.7711563110351562,-0.013391628861427307,9.811570167541504,-0.00011351865396136418,-0.004219918046146631,-0.0024985703639686108
4347.979762394,4.218246936798096,0.0048246197402477264,9.812228202819824,-0.0001108132055378519,-0.004586753435432911,-0.0040903110057115555
4348.029762395,4.699954986572266,-0.06344323605298996,9.799933433532715,-9.922791650751606e-05,-0.004179510287940502,-0.001784579479135573
4348.079762396,4.841892719268799,-0.02734069526195526,9.792023658752441,-4.259949491824955e-05,-0.0034279567189514637,-0.004996028263121843
4348.129762396,5.278702259063721,-0.02738000452518463,9.798507690429688,-0.00010597606160445139,-0.0037550886627286673,-0.004923420492559671
4348.179762397,5.480353355407715,-0.025575000792741776,9.790167808532715,-8.564368181396276e-05,-0.003257608972489834,-0.004701111000031233
4348.229762398,5.992081165313721,-0.04128319397568703,9.801634788513184,-0.00010317617852706462,-0.003439495339989662,-0.005084960255771875
4348.279762399,5.853353023529053,-0.043048080056905746,9.771230697631836,-9.299853991251439e-05,-0.0022411365061998367,-0.00555535638704896
4348.329762399,5.509225368499756,0.0193122960627079,9.761007308959961,0.0001303857279708609,-0.0011284512002021074,-0.004397115670144558
4348.3797624,5.314544677734375,0.006786126643419266,9.770374298095703,-4.706193976744544e-06,-0.00042273904546163976,-0.004386821296066046
4348.429762401,5.219614505767822,-0.021332167088985443,9.782672882080078,-6.70983426971361e-05,-6.847744953120127e-05,-0.004567199852317572
4348.479762402,5.20960807800293,-0.03122313693165779,9.790359497070312,-8.536745008314028e-05,6.068957372917794e-05,-0.0047868178226053715
4348.529762402,5.209722518920898,-0.034989550709724426,9.847329139709473,-0.00010060645581688732,6.942384788999334e-05,-0.0050150929018855095
4348.579762403,4.884180068969727,0.01661541685461998,9.78477668762207,0.00017745819059200585,0.003776643192395568,-0.0038127675652503967
4348.629762404,0.9247705340385437,0.015741804614663124,9.547638893127441,-4.326868292992003e-06,0.008414245210587978,-0.0037210641894489527
4348.679762405,-0.5796319246292114,-0.0013671510387212038,9.73647403717041,3.2480224035680294e-05,0.010285377502441406,-0.0034619607031345367
4348.729762405,0.8975873589515686,-0.013084356673061848,9.912148475646973,-9.183963993564248e-05,0.0033085686154663563,-0.0035609605256468058
4348.779762406,1.4859944581985474,-0.018631810322403908,9.89718246459961,-8.447482287010644e-06,0.003134708618745208,-0.003498499281704426
4348.829762407,3.03631854057312,-0.022763453423976898,9.921151161193848,-9.619907359592617e-05,-0.002894156612455845,-0.0034033211413770914
4348.879762408,0.8546297550201416,0.05017697438597679,9.703923225402832,0.0003326709847897291,0.005323917604982853,-0.001698119449429214
4348.929762408,0.1477850377559662,0.07237361371517181,9.783245086669922,0.00013322700397111475,0.002796886023133993,-0.0007999757654033601
4348.979762409,4.371096134185791,0.034156739711761475,10.106066703796387,3.25833898386918e-05,-0.01614908128976822,-0.0003521396138239652
4349.02976241,14.121909141540527,0.015155378729104996,10.22495174407959,-1.6709645933588035e-05,-0.021245498210191727,-0.00016089604469016194
4349.079762411,12.124210357666016,0.0039312830194830894,9.672249794006348,-2.2912747226655483e-05,-0.014465468004345894,-9.484493784839287e-05
4349.129762411,9.748367309570312,0.02119971439242363,9.539064407348633,6.97030991432257e-05,-0.005801478400826454,0.00041837641038000584
4349.179762412,4.180929183959961,0.021430322900414467,9.390665054321289,9.038561984198168e-06,0.00991499051451683,0.0005803079693578184
4349.229762413,-0.2399185597896576,0.01034494023770094,9.535508155822754,7.060315283524687e-07,0.014311254024505615,0.0006725562852807343
4349.279762414,-2.322394609451294,0.0064595541916787624,9.719770431518555,-1.6624269846943207e-05,0.017477264627814293,0.000660258112475276
4349.329762414,-3.0197558403015137,0.006069391034543514,9.841821670532227,-5.687556040356867e-06,0.013728288002312183,0.000696254544891417
4349.379762415,-4.1518096923828125,-0.007720448076725006,9.843299865722656,-6.786379526602104e-05,0.014823558740317822,0.000336185417836532
4349.429762416,-4.232497692108154,-0.011437073349952698,9.892760276794434,-4.082381201442331e-05,0.008570955134928226,0.00016510348359588534
4349.479762417,-4.221843242645264,-0.0063538216054439545,9.889504432678223,-1.8321230527362786e-05,0.009190541692078114,5.6697852414799854e-05
4349.529762417,-3.524531841278076,-0.002635657787322998,9.908411979675293,-1.2498684554884676e-05,0.0029446210246533155,2.474774191796314e-05
4349.579762418,-9.256002426147461,-0.0013442798517644405,9.525256156921387,-7.697181899857242e-06,0.015113935805857182,0.00010259584814775735
4349.629762419,-10.42837905883789,-0.001739318948239088,9.791566848754883,-8.089152288448531e-06,0.012513366527855396,-4.518889545579441e-05
4349.67976242,-18.985116958618164,-3.7583522498607635e-06,9.28239917755127,-5.802365194540471e-06,0.031573276966810226,-5.407842036220245e-05
4349.72976242,-26.107288360595703,-8.323974907398224e-05,9.44242000579834,-7.955259206937626e-06,0.03486763313412666,-5.9094276366522536e-05
4349.779762421,-26.314945220947266,-5.3806696087121964e-05,9.72314453125,-6.583957656403072e-06,0.030512360855937004,-5.53180361748673e-05
